"Time (s)","Linear Acceleration x (m/s^2)","Linear Acceleration y (m/s^2)","Linear Acceleration z (m/s^2)","Absolute acceleration (m/s^2)"
1.366573300E-2,-3.065347672E-2,1.224679947E-1,2.895498276E-2,1.295238835E-1
2.166698300E-2,-5.454087257E-2,1.215391159E-1,4.326534271E-1,4.526979694E-1
2.966792000E-2,-1.139991283E-1,1.137142181E-1,5.760667324E-1,5.981468088E-1
3.767042000E-2,-4.520440102E-2,1.200008392E-1,6.314752102E-1,6.443637019E-1
4.567292000E-2,6.928110123E-2,1.368007660E-1,6.168320179E-1,6.356068430E-1
5.367448300E-2,1.328747272E-1,9.225082397E-2,6.619961262E-1,6.814725077E-1
6.167596700E-2,1.152656078E-1,1.574993134E-2,6.279523373E-1,6.386378931E-1
6.967721700E-2,1.110947132E-1,-5.393791199E-2,4.991488457E-1,5.141992841E-1
7.767897500E-2,1.598238945E-2,-4.066562653E-2,3.417325020E-1,3.445144886E-1
8.568163100E-2,-1.304550171E-1,3.089904785E-4,1.999654770E-1,2.387567778E-1
9.368233400E-2,-1.422622204E-1,6.154918671E-2,1.331605911E-1,2.043491736E-1
1.016841700E-1,3.887152672E-2,1.908540726E-1,3.681564331E-1,4.165038197E-1
1.096829590E-1,2.409167290E-1,3.283891678E-1,3.169360161E-1,5.160704934E-1
1.176810840E-1,2.859741449E-1,2.407741547E-1,2.978429794E-1,4.779789174E-1
1.256829200E-1,2.778168917E-1,1.988410950E-2,1.978139877E-1,3.416254921E-1
1.336853810E-1,2.706810236E-1,-1.408061981E-1,1.709036827E-1,3.497179874E-1
1.416878810E-1,2.141491175E-1,-1.836700439E-1,2.899522781E-1,4.045576018E-1
1.496903030E-1,5.078434944E-2,-2.519502640E-1,5.406892300E-1,5.986675447E-1
1.576904990E-1,-7.877397537E-2,-2.806301117E-1,9.818170071E-1,1.024169534E0
1.656919830E-1,-3.067564964E-2,-1.803865433E-1,1.313075304E0,1.325762820E0
1.736967880E-1,2.326172590E-1,1.859092712E-1,1.745960951E0,1.771172687E0
1.816990530E-1,4.074819088E-1,4.260578156E-1,1.771335363E0,1.866867895E0
1.897012800E-1,6.688218117E-1,3.403959274E-1,1.327675343E0,1.525094692E0
1.977030770E-1,7.718725801E-1,2.375984192E-1,7.703723907E-1,1.116115545E0
2.057018660E-1,7.932581902E-1,4.007148743E-2,3.964705467E-1,8.877235914E-1
2.137019440E-1,6.902217865E-1,-1.115636826E-1,2.143592834E-1,7.313019022E-1
2.217017880E-1,5.512298942E-1,-4.398698807E-1,7.074642181E-2,7.087629818E-1
2.296998340E-1,5.084555745E-1,-6.063623428E-1,-1.473903656E-1,8.049386821E-1
2.376983500E-1,3.233335018E-1,-7.627620697E-1,2.876253128E-1,8.769714071E-1
2.456980770E-1,2.391729355E-1,-7.040090561E-1,8.872842789E-1,1.157629403E0
2.536994050E-1,3.800618052E-1,-4.497766495E-1,1.240842819E0,1.373476215E0
2.617010450E-1,5.455178618E-1,-1.646232605E-1,1.133238316E0,1.268431959E0
2.697007720E-1,5.620282292E-1,1.316652298E-1,1.086657524E0,1.230461717E0
2.777029590E-1,4.179019332E-1,2.035970688E-1,1.095828056E0,1.190349915E0
2.857087020E-1,2.509213686E-1,1.266860962E-2,8.030834198E-1,8.414659863E-1
2.937104590E-1,1.071789861E-1,-3.229675293E-1,3.070397377E-1,4.583325873E-1
3.017135060E-1,-2.504324913E-2,-4.174156189E-1,1.744208336E-1,4.530845290E-1
3.097121390E-1,-1.789427996E-1,-4.931125641E-1,3.880395889E-1,6.524992329E-1
3.177115920E-1,-2.516623139E-1,-6.267371178E-1,5.963549614E-1,9.009842257E-1
3.257158890E-1,-3.061910272E-1,-9.473299980E-1,9.230990410E-1,1.357681446E0
3.337183890E-1,-2.410803437E-1,-9.058022499E-1,1.372232437E0,1.661812056E0
3.417199910E-1,2.157380581E-1,-3.693542480E-1,1.615593910E0,1.671259750E0
3.497196390E-1,6.684576273E-1,-6.965923309E-2,1.501025677E0,1.644617308E0
3.577228030E-1,6.989741921E-1,-1.534299850E-1,1.322584152E0,1.503773428E0
3.657255380E-1,5.428651571E-1,-4.256105423E-1,1.268535614E0,1.443963129E0
3.737291700E-1,3.520472646E-1,-6.739277840E-1,1.439533710E0,1.627996695E0
3.817343270E-1,4.147725105E-1,-6.072554588E-1,1.445152283E0,1.621499475E0
3.897373340E-1,6.694328785E-1,-4.899682999E-1,1.198608875E0,1.457694258E0
3.977394050E-1,8.250818253E-1,-5.428199768E-1,1.103267670E0,1.480747479E0
4.057427640E-1,9.786744118E-1,-5.694465637E-1,1.006365776E0,1.514874605E0
4.137452640E-1,1.167690277E0,-5.888795853E-1,7.262263298E-1,1.495889177E0
4.217457330E-1,1.490128636E0,-6.422510147E-1,3.289923668E-1,1.655658690E0
4.297468270E-1,1.725426078E0,-6.116533279E-1,1.078874588E0,2.124896543E0
4.377461630E-1,1.843964815E0,-7.951393127E-1,-1.595170498E0,2.564570468E0
4.457476860E-1,1.373224258E0,-1.018951893E0,-5.243186951E-1,1.788551905E0
4.537500300E-1,1.550247192E0,-9.046978951E-1,-5.399689674E-1,1.874382865E0
4.617525300E-1,1.680693150E0,-8.656339645E-1,-6.052007675E-1,1.985023827E0
4.697532720E-1,1.701480746E0,-8.655214310E-1,-5.238728523E-1,1.979547131E0
4.777545610E-1,1.691139817E0,-7.531633377E-1,-2.543883324E-1,1.868668595E0
4.857566310E-1,1.690411329E0,-6.529254913E-1,-6.045675278E-2,1.813134628E0
4.937583890E-1,1.620808959E0,-6.549882889E-1,8.512401581E-2,1.750222111E0
5.017600690E-1,1.346559882E0,-6.756515503E-1,2.633414268E-1,1.529404211E0
5.097642490E-1,9.859157205E-1,-6.515226364E-1,3.859410286E-1,1.243166132E0
5.177660060E-1,8.189860582E-1,-4.592733383E-1,4.406352043E-1,1.037222033E0
5.257685840E-1,7.442802191E-1,-1.624240875E-1,4.489607811E-1,8.842513283E-1
5.337732720E-1,7.667387724E-1,7.501125336E-2,4.849786758E-1,9.103402382E-1
5.417777640E-1,7.328894138E-1,1.349163055E-1,4.165315628E-1,8.537141473E-1
5.497779200E-1,7.158834338E-1,3.429279327E-1,3.728985786E-1,8.770074161E-1
5.577790920E-1,7.293611765E-1,6.181993484E-1,4.488086700E-1,1.056204233E0
5.657779990E-1,7.845650315E-1,7.878255844E-1,5.256147385E-1,1.229830189E0
5.737766310E-1,8.227134347E-1,8.083648682E-1,6.279797554E-1,1.313266816E0
5.817737020E-1,6.486181021E-1,5.992212296E-1,5.963935852E-1,1.065578168E0
5.897671000E-1,7.833753228E-1,4.632339478E-1,1.128277779E-1,9.170565382E-1
5.977645610E-1,6.276292801E-1,-2.076816559E-2,-3.327035904E-2,6.288535177E-1
6.057624520E-1,5.253481865E-1,-3.351049423E-1,-2.548131943E-1,6.732130446E-1
6.137607330E-1,3.456296027E-1,-6.279201508E-1,-5.577297211E-1,9.081882953E-1
6.217587410E-1,5.440586805E-2,-9.148855209E-1,-4.028782845E-1,1.001142561E0
6.297574910E-1,-1.946335435E-1,-1.190324306E0,-1.081404686E-1,1.210970079E0
6.377546780E-1,-2.637181282E-1,-1.301196575E0,2.166237831E-1,1.345208401E0
6.457534280E-1,-2.581869364E-1,-1.417191029E0,2.643213272E-1,1.464567059E0
6.537535840E-1,-2.349028587E-1,-1.616600513E0,1.718287468E-1,1.642589934E0
6.617538190E-1,-2.819151282E-1,-1.826627731E0,3.328895569E-2,1.848554344E0
6.697531550E-1,1.951790154E-1,-1.404882908E0,-3.783288002E-1,1.467965774E0
6.777510450E-1,1.009557009E0,-7.733802795E-1,-8.650417328E-1,1.538057089E0
6.857497950E-1,1.005378127E0,-6.794757843E-1,-9.038233757E-1,1.513066163E0
6.937482330E-1,6.034421921E-1,-7.172393799E-1,-7.649357319E-1,1.209835312E0
7.017490140E-1,2.714353800E-2,-6.372365952E-1,-8.850269318E-1,1.090907842E0
7.097503810E-1,-3.479458690E-1,-5.133600235E-1,-9.530262947E-1,1.137041758E0
7.177490140E-1,-7.002725005E-1,-3.617563248E-1,-8.072283268E-1,1.128213980E0
7.257463580E-1,-1.043778777E0,-2.112398148E-1,-3.466157913E-1,1.119928079E0
7.337446390E-1,-1.310010195E0,-5.833148956E-2,2.827143669E-1,1.341438290E0
7.417429590E-1,-1.326894045E0,9.952545166E-2,8.504104614E-1,1.579161510E0
7.497391700E-1,-1.174307704E0,1.180009842E-1,1.329208374E0,1.777559484E0
7.577385450E-1,-8.278784752E-1,-9.564399719E-3,1.621967793E0,1.821058420E0
7.657374910E-1,-4.038431644E-1,-1.461372375E-1,1.568816662E0,1.626539613E0
7.737353810E-1,-3.734230995E-2,-1.794118881E-1,1.384715080E0,1.396788791E0
7.817339750E-1,3.471308947E-1,-1.004819870E-1,9.422392845E-1,1.009163692E0
7.897335840E-1,6.472283602E-1,7.319450378E-3,4.119787216E-1,7.672578391E-1
7.977352250E-1,8.689097762E-1,1.025600433E-1,1.350164413E-1,8.852978036E-1
8.057363580E-1,7.732884884E-1,-1.430225372E-2,3.676080704E-2,7.742938704E-1
8.137355770E-1,5.762352943E-1,-7.600688934E-2,-1.071319580E-1,5.910172739E-1
8.217373740E-1,3.896169960E-1,-3.348779678E-1,-3.507981300E-1,6.220964435E-1
8.297373740E-1,1.981405020E-1,-3.935089111E-1,-3.216838837E-1,5.455175915E-1
8.377350690E-1,2.427563071E-1,-3.766307831E-1,-2.297453880E-1,5.035517002E-1
8.457310840E-1,4.984068871E-1,-2.809686661E-1,-4.027848244E-1,6.997059605E-1
8.537269440E-1,5.752893686E-1,-3.946685791E-1,-4.700093269E-1,8.412074134E-1
8.617234670E-1,3.903685510E-1,-5.042905807E-1,-3.063297272E-1,7.074846268E-1
8.697205380E-1,7.570555210E-1,-1.503810883E-1,-5.386629105E-1,9.412254059E-1
8.777223340E-1,9.672726989E-1,2.944068909E-1,-5.026931763E-1,1.129155579E0
8.857251470E-1,1.125868559E0,5.438451767E-1,-3.290596008E-1,1.292914463E0
8.937247170E-1,1.204713345E0,4.079465866E-1,-9.652805328E-2,1.275567452E0
9.017238970E-1,1.143838406E0,-5.221080780E-2,-1.721529961E-1,1.157898493E0
9.097251470E-1,9.814519882E-1,-3.797674179E-1,-3.579993248E-1,1.111591118E0
9.177248340E-1,8.741728067E-1,-4.065179825E-1,-6.122937202E-1,1.142076427E0
9.257228420E-1,8.583065271E-1,-2.769689560E-1,-7.470679283E-1,1.171115872E0
9.337218270E-1,8.229743242E-1,-1.025314331E-1,-7.298521996E-1,1.104755025E0
9.417201860E-1,7.324646711E-1,-6.044101715E-2,-5.956592560E-1,9.460272513E-1
9.497171390E-1,6.786385775E-1,-1.398859024E-1,-5.428504944E-1,8.802301084E-1
9.577146780E-1,4.748106897E-1,-7.456207275E-2,-2.381477356E-1,5.363944796E-1
9.657140920E-1,1.058017015E-1,-1.097297668E-1,2.531991005E-1,2.955408707E-1
9.737129990E-1,4.484310448E-1,-3.323459625E-2,2.810091972E-1,5.302462723E-1
9.817127640E-1,8.134081960E-1,-3.027153015E-2,9.145641327E-2,8.190931170E-1
9.897111240E-1,7.118280530E-1,-2.121410370E-1,1.653141975E-1,7.609413778E-1
9.977105380E-1,5.272210240E-1,-2.634544373E-1,1.828465462E-1,6.170924632E-1
1.005712334E0,4.402607977E-1,-5.356597900E-2,6.975030899E-2,4.489587840E-1
1.013715538E0,4.245042801E-1,1.014175415E-1,1.898403168E-1,4.759503623E-1
1.021715538E0,3.024952114E-1,7.377338409E-2,3.589162827E-1,4.751492008E-1
1.029717959E0,1.421305835E-1,7.829570770E-2,4.872503281E-1,5.135603205E-1
1.037722374E0,1.332354844E-1,1.204833984E-1,3.296747208E-1,3.754375649E-1
1.045723975E0,1.323237121E-1,1.197986603E-1,1.001648903E-1,2.046809445E-1
1.053727881E0,3.107193112E-2,-1.842594147E-2,7.667541504E-3,3.692927586E-2
1.061731241E0,-1.555261016E-2,-1.989650726E-1,-1.290864944E-1,2.376811033E-1
1.069733506E0,-2.630677819E-2,-3.054399490E-1,-3.651976585E-1,4.768175111E-1
1.077737803E0,-5.524384975E-2,-2.998399734E-1,-5.087566376E-1,5.931182082E-1
1.085741709E0,-4.562297463E-2,-2.863731384E-1,-4.754877090E-1,5.569376910E-1
1.093742764E0,1.649096608E-2,-3.790245056E-1,-4.680404663E-1,6.024893409E-1
1.101743038E0,-3.861448765E-1,-1.338414192E0,-7.576661110E-1,1.585723290E0
1.109745811E0,3.010824919E-1,-1.412744522E-1,-4.064388275E-1,5.251682190E-1
1.117749092E0,3.670989573E-1,2.679376602E-1,-3.934001923E-2,4.561796481E-1
1.125749522E0,7.503613830E-2,-9.370517731E-2,2.296643257E-1,2.591462614E-1
1.133751006E0,-1.809924841E-1,-5.254812241E-1,1.422514915E-1,5.736935445E-1
1.141750186E0,-2.058628201E-2,-6.460571289E-1,-8.373165131E-2,6.517856996E-1
1.149751084E0,2.424453199E-1,-5.793666840E-1,-2.960987091E-1,6.943485675E-1
1.157752413E0,4.873366654E-1,-5.151834488E-1,-5.359721184E-1,8.889190756E-1
1.165753311E0,4.665182233E-1,-5.355625153E-1,-8.260989189E-1,1.089452103E0
1.173752334E0,3.871354461E-1,-5.331764221E-1,-1.270195961E0,1.430925830E0
1.181754444E0,2.335648686E-1,-8.398747444E-1,-1.616641283E0,1.836701166E0
1.189756241E0,1.549202502E-1,-1.236798286E0,-1.918475151E0,2.287841164E0
1.197759053E0,1.513753831E-1,-1.355843544E0,-1.978023529E0,2.402873968E0
1.205761749E0,1.923486292E-1,-1.210343361E0,-1.853876829E0,2.222338485E0
1.213762764E0,2.198460698E-1,-9.953927994E-1,-1.470600128E0,1.789358504E0
1.221763819E0,2.848391235E-1,-7.828245163E-1,-1.251586437E0,1.503468044E0
1.229766045E0,3.918326497E-1,-5.053992271E-1,-1.182586670E0,1.344422715E0
1.237765186E0,4.363451004E-1,-2.265448570E-1,-1.333701611E0,1.421435755E0
1.245767139E0,1.404225826E-2,-2.255325317E-1,-1.415493488E0,1.433416870E0
1.253767491E0,3.407247663E-1,-3.314018250E-3,-1.860315323E0,1.891263453E0
1.261769600E0,1.172609687E0,2.630887032E-1,-2.242128849E0,2.543888936E0
1.269771280E0,1.688150167E0,3.637032509E-1,-1.881672382E0,2.553981597E0
1.277774913E0,1.428385615E0,1.586785316E-1,-1.626658440E0,2.170594854E0
1.285779366E0,1.069745421E0,5.703401566E-2,-9.525976181E-1,1.433544686E0
1.293779639E0,8.368225098E-1,-1.529884338E-2,2.132759094E-1,8.637086204E-1
1.301780420E0,7.577011585E-1,-2.081918716E-1,9.895873070E-1,1.263620963E0
1.309780928E0,6.503332853E-1,-2.869448662E-1,1.529337883E0,1.686459338E0
1.317782139E0,5.807750225E-1,-1.117920876E-1,1.909018517E0,1.998536663E0
1.325783389E0,5.341781974E-1,1.951122284E-2,1.966726780E0,2.038072928E0
1.333783155E0,6.189923286E-1,2.517700195E-4,1.603157997E0,1.718507239E0
1.341783936E0,8.448144794E-1,-1.099500656E-1,9.205403328E-1,1.254270715E0
1.349783467E0,9.543366432E-1,-1.929860115E-1,4.471101761E-1,1.071405404E0
1.357783741E0,9.904811978E-1,-2.317953110E-1,5.155968666E-1,1.140448244E0
1.365784678E0,1.093442678E0,-5.887746811E-2,1.423120975E0,1.795649397E0
1.373789249E0,1.269713163E0,1.855430603E-1,2.538412094E0,2.844316034E0
1.381792725E0,1.472772360E0,4.040484428E-1,3.584610462E0,3.896375974E0
1.389795186E0,1.580049872E0,5.944809914E-1,4.385563374E0,4.699269236E0
1.397796319E0,1.704373002E0,8.244490623E-1,5.083122730E0,5.424273249E0
1.405801006E0,1.792431474E0,9.760794640E-1,5.295865536E0,5.675538167E0
1.413803741E0,1.870406151E0,1.069744587E0,5.126312733E0,5.560742296E0
1.421807413E0,1.846350789E0,1.061387539E0,4.841593266E0,5.289289186E0
1.429808702E0,1.790051222E0,9.277238846E-1,4.430146217E0,4.867355595E0
1.437810186E0,1.615394711E0,6.290369034E-1,3.856195927E0,4.227935019E0
1.445810030E0,1.340517044E0,2.602105141E-1,3.317185879E0,3.587257673E0
1.453810967E0,1.093957186E0,1.930189133E-2,2.931628227E0,3.129146681E0
1.461811905E0,9.758045673E-1,-9.847640991E-3,2.291587830E0,2.490716024E0
1.469812881E0,1.031785011E0,1.563334465E-1,1.662636280E0,1.963002765E0
1.477815303E0,1.123871088E0,2.963833809E-1,1.055936337E0,1.570328271E0
1.485816084E0,1.040772796E0,2.836880684E-1,8.810496330E-1,1.392815633E0
1.493815928E0,9.348609447E-1,3.640546799E-1,9.738283157E-1,1.398156781E0
1.501814795E0,7.887109518E-1,4.300189018E-1,1.235506535E0,1.527565913E0
1.509813819E0,7.214481831E-1,4.857978821E-1,1.623633862E0,1.841921274E0
1.517812530E0,7.021994591E-1,5.494523048E-1,2.086506844E0,2.269029027E0
1.525812530E0,7.245377302E-1,5.474667549E-1,2.319356918E0,2.490801334E0
1.533813038E0,8.262459040E-1,5.454673767E-1,2.285354137E0,2.490594404E0
1.541811163E0,8.461222649E-1,4.611172676E-1,2.143769741E0,2.350383102E0
1.549810850E0,8.177498579E-1,3.089041710E-1,1.956615925E0,2.143007815E0
1.557809991E0,7.202324867E-1,1.815638542E-1,1.755782604E0,1.906429338E0
1.565811202E0,4.880032837E-1,8.569717407E-3,1.400965691E0,1.483551654E0
1.573811827E0,1.798082143E-1,-2.372608185E-1,1.240144730E0,1.275375490E0
1.581811827E0,-2.151712030E-1,-5.629744530E-1,1.266558647E0,1.402643821E0
1.589812491E0,-4.120579064E-1,-7.681765556E-1,1.313523293E0,1.576461347E0
1.597814756E0,-4.578055739E-1,-7.106413841E-1,1.401974678E0,1.637110295E0
1.605813194E0,-3.771193624E-1,-4.921364784E-1,1.485578537E0,1.609770455E0
1.613812374E0,-1.109833941E-1,-2.221612930E-1,1.426358700E0,1.447816319E0
1.621811280E0,1.639757156E-1,-6.691503525E-2,9.770436287E-1,9.929652107E-1
1.629809717E0,2.683740854E-1,-6.620788574E-2,4.893980026E-1,5.620663118E-1
1.637810030E0,1.977550089E-1,-1.303234100E-1,2.554812431E-1,3.483703494E-1
1.645809170E0,8.616670966E-2,-1.520195007E-1,5.308599472E-1,5.588800533E-1
1.653808584E0,1.639012992E-2,-1.217851639E-1,8.796162605E-1,8.881582226E-1
1.661807999E0,4.121169448E-3,-2.757167816E-2,9.411287308E-1,9.415415388E-1
1.669806553E0,-7.624402642E-2,-3.787517548E-2,1.013669491E0,1.017238181E0
1.677805499E0,-1.198877841E-1,-1.922655106E-1,1.242970467E0,1.263453477E0
1.685803897E0,-1.261009723E-1,-3.228960037E-1,1.370296955E0,1.413462780E0
1.693802686E0,3.893877268E-1,-3.860263824E-1,9.829940796E-1,1.125573867E0
1.701802686E0,-1.904395819E-1,-3.027391434E-1,1.197547436E0,1.249815220E0
1.709801592E0,-5.034983158E-2,-2.928237915E-1,9.642834663E-1,1.009021051E0
1.717801124E0,-5.988252163E-2,-3.876676559E-1,6.811060905E-1,7.859883170E-1
1.725801983E0,-8.267873526E-2,-4.238929749E-1,4.853782654E-1,6.497023071E-1
1.733801944E0,3.682345152E-3,-3.050136566E-1,1.402249336E-1,3.357229846E-1
1.741802061E0,-1.207910478E-1,-2.465829849E-1,1.382761002E-1,3.074311721E-1
1.749802139E0,-1.276936233E-1,-2.872943878E-1,1.208381653E-1,3.368168477E-1
1.757799483E0,-4.016080499E-1,-4.235525131E-1,1.572399139E-1,6.044916440E-1
1.765800186E0,-5.504189730E-1,-5.410518646E-1,2.870650291E-1,8.234710055E-1
1.773801709E0,-5.042454004E-1,-6.169071198E-1,3.210132122E-1,8.590036674E-1
1.781801397E0,-7.090765238E-1,-7.265071869E-1,4.102988243E-1,1.094964536E0
1.789799053E0,-6.413827538E-1,-6.649322510E-1,2.074227333E-1,9.468531700E-1
1.797800264E0,-5.653564334E-1,-5.369300842E-1,3.049228191E-1,8.371975500E-1
1.805799405E0,-3.449400663E-1,-3.419952393E-1,8.696744442E-1,9.961315334E-1
1.813799405E0,4.562062025E-2,-2.304954529E-1,1.069333076E0,1.094843652E0
1.821801827E0,2.170068026E-2,-1.516971588E-1,1.410051107E0,1.418353649E0
1.829802959E0,-2.524971962E-3,-1.874103546E-1,1.634915352E0,1.645623658E0
1.837804639E0,-1.058888435E-2,-3.326616287E-1,1.557482719E0,1.592648205E0
1.845805499E0,9.310457110E-2,-4.285449982E-1,1.161125183E0,1.241181279E0
1.853804913E0,6.237840652E-2,-4.924297333E-1,6.707129478E-1,8.344063556E-1
1.861804327E0,-2.444919348E-1,-5.592327118E-1,4.098825455E-1,7.352014916E-1
1.869805850E0,-3.664982319E-1,-5.369405746E-1,3.037238121E-2,6.508061280E-1
1.877805342E0,-4.462743998E-1,-4.592962265E-1,-4.876186848E-1,8.049135639E-1
1.885808584E0,-3.426963091E-1,-4.321451187E-1,-8.035551310E-1,9.746235234E-1
1.893812256E0,-3.505814672E-1,-5.086345673E-1,-7.400075197E-1,9.639645312E-1
1.901813389E0,-4.189824462E-1,-5.698070526E-1,-3.173452616E-1,7.751995759E-1
1.909811241E0,-2.931491733E-1,-5.250997543E-1,4.830145836E-2,6.033234793E-1
1.917811045E0,-2.931088209E-2,-4.032926559E-1,6.544518471E-2,4.096183179E-1
1.925810889E0,2.364531159E-1,-2.327423096E-1,-7.504439354E-2,3.401627841E-1
1.933810889E0,3.051384389E-1,1.068077087E-1,-9.741115570E-2,3.376481702E-1
1.941810889E0,-4.162770510E-2,4.572544098E-1,2.052152157E-1,5.029192240E-1
1.949809913E0,-3.106139302E-1,6.269922256E-1,7.086251974E-1,9.958664243E-1
1.957807295E0,-1.921879053E-1,7.207107544E-1,8.270955086E-1,1.113753636E0
1.965807920E0,6.578862667E-2,7.622165680E-1,9.508459568E-1,1.220413976E0
1.973807139E0,1.616584659E-1,7.086133957E-1,1.259682059E0,1.454326406E0
1.981808311E0,2.823341489E-1,7.041931152E-1,1.355105281E0,1.553032787E0
1.989806983E0,3.929524422E-1,6.913261414E-1,1.294491410E0,1.519227260E0
1.997804249E0,3.184275031E-1,5.794734955E-1,1.317637444E0,1.474229982E0
2.005799834E0,3.357309699E-1,4.742374420E-1,1.094158888E0,1.238870497E0
2.013799209E0,2.392347455E-1,3.424291611E-1,9.123311043E-1,1.003413692E0
2.021793741E0,-1.235532761E-2,2.226591110E-1,7.774807215E-1,8.088300230E-1
2.029789874E0,-5.074743032E-1,6.260108948E-2,6.798194647E-1,8.506489108E-1
2.037791202E0,-1.794709921E0,-1.470928192E-1,6.520903111E-1,1.915161030E0
2.045791944E0,-4.652758598E0,-5.739412308E-1,-1.027653813E0,4.799337816E0
2.053792022E0,-6.011061192E0,-1.275032043E0,-2.486523390E0,6.628828096E0
2.061792491E0,-3.957810402E0,-1.463612556E0,-3.076069832E0,5.221937428E0
2.069791631E0,-2.774517536E0,-1.615335464E0,-1.961061597E0,3.762049815E0
2.077788584E0,-2.578378677E0,-1.833593369E0,-7.152712941E-1,3.243719203E0
2.085789483E0,-2.349041224E0,-1.883321762E0,-2.070154548E-1,3.017905056E0
2.093786202E0,-2.383054733E0,-1.813099861E0,-2.150052190E-1,3.002083978E0
2.101784834E0,-2.524476290E0,-1.708266258E0,-3.590074778E-1,3.069208451E0
2.109782139E0,-2.459750652E0,-1.550963402E0,-1.948492527E-1,2.914417090E0
2.117780850E0,-2.330835342E0,-1.566641808E0,1.652975678E-1,2.813269136E0
2.125780264E0,-2.111479044E0,-1.664171219E0,2.978495359E-1,2.704907382E0
2.133777881E0,-1.898094654E0,-1.857975960E0,3.457808495E-2,2.656319564E0
2.141774913E0,-1.875157356E0,-2.161825657E0,-1.187701225E-1,2.864229674E0
2.149773624E0,-1.971607685E0,-2.471022129E0,2.202454805E-1,3.168863408E0
2.157772100E0,-2.279596090E0,-2.685094833E0,8.515150547E-1,3.623723291E0
2.165773272E0,-2.754847765E0,-2.956917763E0,1.545220494E0,4.326691027E0
2.173773545E0,-3.095163107E0,-3.185784817E0,1.959021688E0,4.854588091E0
2.181773936E0,-3.361009598E0,-3.466876507E0,2.187209606E0,5.300896537E0
2.189772100E0,-3.665041447E0,-3.814130783E0,2.209068298E0,5.732373434E0
2.197771749E0,-3.925740719E0,-4.189321995E0,1.975172520E0,6.071504381E0
2.205771749E0,-3.839185953E0,-4.381806850E0,1.479762197E0,6.010763364E0
2.213768624E0,-4.406527996E0,-5.201996326E0,1.092538714E0,6.904483732E0
2.221768663E0,-4.776131153E0,-5.787268639E0,8.550216556E-1,7.552149967E0
2.229770577E0,-4.854836464E0,-6.153352261E0,4.933067560E-1,7.853440819E0
2.237771709E0,-4.744822979E0,-6.161439419E0,-3.218249083E-1,7.783331683E0
2.245772413E0,-4.305420876E0,-6.218170643E0,-1.046260238E0,7.635244302E0
2.253776436E0,-3.816689014E0,-6.256169796E0,-1.392085552E0,7.459536027E0
2.261779717E0,-3.257003307E0,-6.177627087E0,-1.332093835E0,7.109544356E0
2.269780850E0,-2.740747213E0,-6.212203503E0,-9.823474884E-1,6.860624916E0
2.277780577E0,-2.409921169E0,-6.435587883E0,-8.484159708E-1,6.924183786E0
2.285781983E0,-1.964601755E0,-6.200489521E0,-3.144434690E-1,6.511881836E0
2.293783663E0,-1.527825594E0,-6.014748573E0,-1.042517424E-1,6.206635149E0
2.301787881E0,-1.320377946E0,-5.872297287E0,-2.794476748E-1,6.025393294E0
2.309791124E0,-1.038718224E0,-5.935419083E0,-6.094014645E-1,6.056360737E0
2.317792608E0,-2.077578306E-1,-5.891624451E0,-3.957611024E-1,5.908555562E0
2.325793428E0,5.394711494E-1,-5.639005661E0,2.046270967E-1,5.668446543E0
2.333796241E0,1.279899836E0,-5.224276066E0,7.225941420E-1,5.427093725E0
2.341797764E0,1.642189264E0,-4.854746342E0,5.681663752E-1,5.156370880E0
2.349796553E0,2.214287519E0,-4.353293419E0,5.126607418E-2,4.884348577E0
2.357796202E0,2.758450508E0,-3.797851086E0,-3.687795401E-1,4.708367066E0
2.365795772E0,3.243678570E0,-3.266894341E0,-6.710060239E-1,4.652343321E0
2.373795069E0,3.381731033E0,-3.021939754E0,-9.805430770E-1,4.640009632E0
2.381794913E0,3.324842930E0,-2.984318733E0,-1.140774608E0,4.611085069E0
2.389794209E0,3.239674807E0,-3.064094543E0,-1.116653085E0,4.596855701E0
2.397793663E0,3.208800077E0,-3.121194839E0,-1.126398206E0,4.615953648E0
2.405790186E0,3.361131907E0,-3.049626350E0,-1.338413715E0,4.731678333E0
2.413787295E0,3.662777901E0,-2.810137749E0,-1.580090761E0,4.879498225E0
2.421786280E0,4.479142189E0,-2.268990993E0,-1.728234291E0,5.310162770E0
2.429784991E0,5.667615891E0,-1.426279545E0,-1.487295508E0,6.030604543E0
2.437782647E0,7.166191578E0,-2.448673248E-1,-7.516624928E-1,7.209664225E0
2.445782022E0,8.233951569E0,8.246927261E-1,-2.211761475E-2,8.275177685E0
2.453782452E0,9.070313454E0,1.653371811E0,6.620464325E-1,9.243512859E0
2.461782764E0,9.635461807E0,2.068528175E0,9.386217594E-1,9.899593116E0
2.469785147E0,1.021823597E1,2.493027687E0,1.037261486E0,1.056898504E1
2.477787999E0,1.039928627E1,2.901290894E0,8.495500088E-1,1.082979127E1
2.485787608E0,1.013185120E1,3.077109337E0,2.336926460E-1,1.059139381E1
2.493786280E0,9.677814484E0,2.899417877E0,-4.356980324E-1,1.011219808E1
2.501784795E0,9.056648254E0,2.563042641E0,-9.567898512E-1,9.460840977E0
2.509783077E0,8.376520157E0,2.227826118E0,-1.085095882E0,8.735372472E0
2.517781514E0,7.753619671E0,1.979266167E0,-9.159049988E-1,8.054501507E0
2.525779522E0,7.234771729E0,1.944823265E0,-2.643365860E-1,7.496274630E0
2.533777764E0,6.779009819E0,1.928112984E0,4.083154202E-1,7.059696544E0
2.541776983E0,6.237389088E0,1.785121918E0,7.620680332E-1,6.532413840E0
2.549776084E0,5.713624954E0,1.578944206E0,6.446230412E-1,5.962727043E0
2.557773663E0,5.093675137E0,1.215626717E0,2.101321220E-1,5.240937914E0
2.565771358E0,4.538529396E0,8.428993225E-1,-2.358381748E-1,4.622158369E0
2.573769483E0,3.875675678E0,5.239152908E-1,-5.796744823E-1,3.953652957E0
2.581766827E0,3.398370266E0,2.490425110E-1,-7.196500301E-1,3.482648246E0
2.589765381E0,2.981136799E0,1.360511780E-2,-6.551690102E-1,3.052311934E0
2.597765616E0,2.723711014E0,-1.045646667E-1,-3.261942863E-1,2.745166328E0
2.605763194E0,2.540703297E0,-2.345924377E-1,3.106856346E-2,2.551699847E0
2.613763233E0,2.403865337E0,-3.524799347E-1,2.146797180E-1,2.439036295E0
2.621761006E0,2.132449865E0,-4.064855576E-1,3.786916733E-1,2.203628898E0
2.629759874E0,1.864079475E0,-4.252529144E-1,5.335762501E-1,1.985027946E0
2.637758584E0,1.712236643E0,-4.422369003E-1,8.431777954E-1,1.959152008E0
2.645754952E0,1.615676403E0,-4.815559387E-1,1.268445730E0,2.109801159E0
2.653754522E0,1.536351442E0,-5.385274887E-1,1.445207119E0,2.176927015E0
2.661752530E0,1.652668715E0,-4.938220978E-1,1.468932152E0,2.265598334E0
2.669752217E0,1.935216904E0,-3.233318329E-1,1.598332882E0,2.530667094E0
2.677751202E0,2.074625731E0,-2.149562836E-1,1.685806990E0,2.681832085E0
2.685752647E0,2.010205269E0,-2.466888428E-1,1.651715279E0,2.613416149E0
2.693750928E0,1.745601177E0,-2.240543365E-1,1.658849239E0,2.418492219E0
2.701746475E0,1.480162621E0,-1.782655716E-1,1.660434723E0,2.231524919E0
2.709744131E0,1.242091417E0,-3.450250626E-1,1.601509094E0,2.055885396E0
2.717743936E0,1.029831171E0,-5.575532913E-1,1.479912758E0,1.887209497E0
2.725744327E0,8.091211319E-1,-7.001218796E-1,1.409161568E0,1.769345635E0
2.733746163E0,7.167100906E-1,-6.473531723E-1,1.422106743E0,1.719048304E0
2.741744014E0,6.941092014E-1,-5.318727493E-1,1.417408466E0,1.665449779E0
2.749741709E0,6.498484612E-1,-4.834842682E-1,1.401104927E0,1.618380387E0
2.757740811E0,5.464110374E-1,-4.826679230E-1,1.395806789E0,1.574741229E0
2.765739795E0,4.755575657E-1,-4.763612747E-1,1.381055355E0,1.536355739E0
2.773740655E0,3.834223747E-1,-4.356861115E-1,1.342765331E0,1.462823927E0
2.781737647E0,3.189709187E-1,-2.889652252E-1,1.304444313E0,1.373615053E0
2.789734795E0,3.383154869E-1,-1.279067993E-1,1.297179222E0,1.346659368E0
2.797731905E0,5.473909378E-1,-4.374217987E-2,1.206182241E0,1.325302161E0
2.805732178E0,8.029088974E-1,-3.227710724E-2,1.037333965E0,1.312160914E0
2.813732803E0,9.445092678E-1,2.093219757E-2,8.000984192E-1,1.238019949E0
2.821731983E0,9.390953779E-1,4.554080963E-2,5.149071217E-1,1.071962424E0
2.829732999E0,8.635371923E-1,-1.541519165E-2,5.610370636E-2,8.654950818E-1
2.837732452E0,7.796272039E-1,-7.449913025E-2,-2.102315426E-1,8.109044327E-1
2.845726944E0,7.101285458E-1,-7.817840576E-2,-1.994037628E-1,7.417252020E-1
2.853724209E0,7.074499130E-1,-6.891250610E-2,-3.860712051E-3,7.108088477E-1
2.861723780E0,8.532398939E-1,-4.865646362E-2,1.940290928E-1,8.763749522E-1
2.869724756E0,1.085998535E0,7.881546021E-2,3.497631550E-1,1.143651590E0
2.877724913E0,1.263877749E0,3.022880554E-1,4.233145714E-1,1.366733427E0
2.885724834E0,1.272174120E0,3.671131134E-1,3.066084385E-1,1.359120217E0
2.893724639E0,1.178689599E0,3.395452499E-1,7.799339294E-2,1.229098498E0
2.901720342E0,1.027582526E0,1.923952103E-1,-1.209838390E-1,1.052415723E0
2.909717100E0,8.988088369E-1,2.156829834E-2,-2.135357857E-1,9.240779451E-1
2.917714092E0,7.771830559E-1,-8.145046234E-2,-2.006604671E-1,8.067913629E-1
2.925712374E0,6.527458429E-1,-8.788776398E-2,-1.638596058E-1,6.787130210E-1
2.933711983E0,4.341672659E-1,-5.543518066E-2,-7.868719101E-2,4.447088351E-1
2.941710030E0,2.525746822E-1,-8.950805664E-2,-4.138350487E-2,2.711425027E-1
2.949707725E0,8.337974548E-2,-1.663236618E-1,1.591775417E-1,2.448534913E-1
2.957706436E0,4.536271095E-2,-2.379961014E-1,2.742207050E-1,3.659192737E-1
2.965707295E0,2.820104361E-2,-2.998809814E-1,3.806440830E-1,4.854006797E-1
2.973707061E0,1.258569360E-1,-2.944421768E-1,6.174678802E-1,6.955593051E-1
2.981705733E0,3.996000886E-1,-1.498804092E-1,1.045927763E0,1.129650058E0
2.989702920E0,6.259015203E-1,-1.072692871E-2,1.251228809E0,1.399085885E0
2.997701202E0,7.467619181E-1,6.541156769E-2,1.247245789E0,1.455181807E0
3.005703506E0,7.194130421E-1,5.552482605E-2,1.180215836E0,1.383310359E0
3.013703311E0,6.702445149E-1,-4.844284058E-2,9.734673500E-1,1.182883384E0
3.021704444E0,6.250717640E-1,-9.343624115E-2,7.201952934E-1,9.581890742E-1
3.029703624E0,5.399286151E-1,-7.345199585E-2,6.085469723E-1,8.168522036E-1
3.037703819E0,3.161277473E-1,-1.518039703E-1,5.352907181E-1,6.399354271E-1
3.045704288E0,8.717587590E-2,-3.041086197E-1,4.948863983E-1,5.873620971E-1
3.053703155E0,-1.522673815E-1,-4.436483383E-1,4.150326252E-1,6.263076589E-1
3.061705030E0,-1.738528907E-1,-4.716176987E-1,5.156111717E-1,7.200714976E-1
3.069705655E0,-3.714140505E-2,-4.315567017E-1,7.497737408E-1,8.658991472E-1
3.077706788E0,7.421644777E-2,-3.250885010E-1,8.626992702E-1,9.249003435E-1
3.085707764E0,1.224077940E-1,-2.304210663E-1,8.626513481E-1,9.012462950E-1
3.093709366E0,1.154777110E-1,-2.114858627E-1,7.437660694E-1,7.818243651E-1
3.101708428E0,1.296168566E-1,-2.512884140E-1,5.090374947E-1,5.822933689E-1
3.109706006E0,2.619765699E-1,-2.789974213E-1,4.048643112E-1,5.571233209E-1
3.117704874E0,4.613866806E-1,-1.929655075E-1,5.146272182E-1,7.176033235E-1
3.125707178E0,5.399439335E-1,-1.693811417E-1,5.966024399E-1,8.222918544E-1
3.133707061E0,5.244461894E-1,-1.794452667E-1,6.460065842E-1,8.512161395E-1
3.141708428E0,4.287814498E-1,-2.226781845E-1,7.191438675E-1,8.663757890E-1
3.149710967E0,3.250781894E-1,-3.420572281E-1,7.679181099E-1,9.013196991E-1
3.157713155E0,2.606686950E-1,-5.084180832E-1,7.768487930E-1,9.643293852E-1
3.165714913E0,2.352200747E-1,-5.730104446E-1,7.307846546E-1,9.579747724E-1
3.173718233E0,2.866977453E-1,-4.923038483E-1,7.099118233E-1,9.102381408E-1
3.181722764E0,4.007833004E-1,-3.919706345E-1,6.167433262E-1,8.334509959E-1
3.189720694E0,5.011376143E-1,-2.865247726E-1,4.947361946E-1,7.602626231E-1
3.197720655E0,5.165055990E-1,-2.526969910E-1,4.496960640E-1,7.299728440E-1
3.205722022E0,3.991153240E-1,-3.144540787E-1,4.721691608E-1,6.936267915E-1
3.213722374E0,2.018744349E-1,-4.339685440E-1,4.485332966E-1,6.559451980E-1
3.221719053E0,-1.190517545E-1,-5.823040009E-1,3.351421356E-1,6.823280155E-1
3.229716436E0,-4.075319767E-1,-7.124385834E-1,2.534794807E-1,8.590127440E-1
3.237714170E0,-6.134405136E-1,-7.337388992E-1,2.662897110E-3,9.563938138E-1
3.245712842E0,-6.842490435E-1,-6.412420273E-1,-3.699805737E-1,1.008104020E0
3.253710303E0,-6.369786263E-1,-5.512342453E-1,-6.619541645E-1,1.071346946E0
3.261708624E0,-4.309649467E-1,-4.379281998E-1,-5.554916859E-1,8.283012173E-1
3.269704756E0,-1.035192013E-1,-2.346601486E-1,-9.866595268E-2,2.748028031E-1
3.277701358E0,2.151603103E-1,-3.695106506E-2,1.582429409E-1,2.696296880E-1
3.285700030E0,3.925788999E-1,1.452732086E-1,2.741010189E-1,5.003537412E-1
3.293698663E0,4.954730868E-1,2.789831161E-1,2.921750546E-1,6.392897789E-1
3.301696592E0,4.469605684E-1,2.935581207E-1,2.426156998E-1,5.872073720E-1
3.309694522E0,2.730469704E-1,2.472019196E-1,1.672084332E-1,4.045022833E-1
3.317691163E0,1.382900476E-1,2.560777664E-1,1.252999306E-1,3.168596414E-1
3.325691163E0,1.854737997E-1,3.590431213E-1,3.448264599E-1,5.312417348E-1
3.333693858E0,2.547675371E-1,4.366407394E-1,5.677092075E-1,7.601679930E-1
3.341695030E0,1.887890100E-1,4.723167419E-1,6.838438511E-1,8.522715575E-1
3.349697178E0,7.576012611E-2,4.999828339E-1,7.122457027E-1,8.735080835E-1
3.357700147E0,-4.783797264E-2,5.090427399E-1,7.414898872E-1,9.006776535E-1
3.365698897E0,-1.360642910E-1,4.702911377E-1,6.286427975E-1,7.967929545E-1
3.373700108E0,-1.864274740E-1,5.359210968E-1,3.805224895E-1,6.832012808E-1
3.381700616E0,-3.224754333E-2,6.779794693E-1,2.769594193E-1,7.330774753E-1
3.389700147E0,3.583101034E-1,8.769006729E-1,2.608745098E-1,9.825458922E-1
3.397698897E0,6.717058420E-1,1.051666260E0,1.837542057E-1,1.261331149E0
3.405699366E0,8.389500380E-1,1.140514374E0,7.927227020E-2,1.418060047E0
3.413699756E0,8.321798444E-1,1.111655235E0,-1.610493660E-2,1.388726044E0
3.421701788E0,6.034088135E-1,1.021906853E0,-2.293109894E-3,1.186760747E0
3.429702491E0,2.639982700E-1,7.952613831E-1,1.389496326E-1,8.493778631E-1
3.437702764E0,-1.326628923E-1,5.183429718E-1,3.974931240E-1,6.665430692E-1
3.445702217E0,-7.159655094E-1,1.334819794E-1,6.641075611E-1,9.856281765E-1
3.453697608E0,-1.242371321E0,-1.921339035E-1,8.394336700E-1,1.511638456E0
3.461697608E0,-1.863105774E0,-5.690469742E-1,9.373388290E-1,2.161846818E0
3.469696788E0,-2.348240614E0,-8.873720169E-1,9.588193893E-1,2.687191415E0
3.477700342E0,-2.948202610E0,-1.199948311E0,8.842198849E-1,3.303576756E0
3.485702452E0,-3.434316397E0,-1.367943764E0,8.468143940E-1,3.792478592E0
3.493702295E0,-3.776032686E0,-1.398409843E0,1.033498287E0,4.157173517E0
3.501702139E0,-3.901243925E0,-1.395985126E0,1.206523657E0,4.315573887E0
3.509702569E0,-4.061663628E0,-1.409846783E0,1.290422916E0,4.488871871E0
3.517702569E0,-4.131419182E0,-1.382083416E0,1.270334005E0,4.537899019E0
3.525704874E0,-3.992753744E0,-1.246194839E0,1.251073122E0,4.365806683E0
3.533706202E0,-3.713188410E0,-1.088599205E0,1.275565624E0,4.074295529E0
3.541707022E0,-3.478273869E0,-9.698104858E-1,1.363188744E0,3.859689759E0
3.549709991E0,-3.397807837E0,-8.901681900E-1,1.371471643E0,3.770733612E0
3.557708780E0,-3.433286428E0,-9.121084213E-1,1.263087988E0,3.770250487E0
3.565708545E0,-3.494582891E0,-1.026350021E0,1.052336454E0,3.791162878E0
3.573707686E0,-3.569298029E0,-1.204748154E0,9.208991528E-1,3.878061601E0
3.581706944E0,-3.645980120E0,-1.388580799E0,8.810966015E-1,3.999707351E0
3.589706124E0,-3.689616919E0,-1.478779316E0,9.675240517E-1,4.090985708E0
3.597706709E0,-3.729874611E0,-1.495110989E0,9.895365238E-1,4.138418057E0
3.605707530E0,-3.703697443E0,-1.475641727E0,8.992674351E-1,4.087000756E0
3.613711592E0,-3.616065264E0,-1.422046185E0,7.731764317E-1,3.961810841E0
3.621715030E0,-3.502901077E0,-1.393454075E0,7.480068207E-1,3.843376695E0
3.629719014E0,-3.275944471E0,-1.386052608E0,7.664601803E-1,3.638738136E0
3.637718428E0,-3.052701473E0,-1.360689640E0,8.378250599E-1,3.445636866E0
3.645718975E0,-2.751934290E0,-1.279138565E0,9.192419052E-1,3.170858478E0
3.653719874E0,-2.545183659E0,-1.222821236E0,9.352765083E-1,2.974557745E0
3.661719639E0,-2.415073156E0,-1.137691498E0,8.751537800E-1,2.809415319E0
3.669717725E0,-2.313472748E0,-1.014200211E0,8.351829052E-1,2.660505348E0
3.677720420E0,-2.225503922E0,-9.574499130E-1,8.246774673E-1,2.559232495E0
3.685723077E0,-2.150212526E0,-9.478836060E-1,7.666893005E-1,2.471782701E0
3.693723858E0,-2.106022835E0,-9.468975067E-1,7.088451385E-1,2.415452028E0
3.701724288E0,-1.984424591E0,-9.452619553E-1,7.078917027E-1,2.309236191E0
3.709723584E0,-1.899921179E0,-1.009875298E0,7.540462017E-1,2.279941727E0
3.717727413E0,-1.952630997E0,-1.159998894E0,8.100888729E-1,2.411350083E0
3.725728975E0,-2.152952194E0,-1.195038795E0,7.814023495E-1,2.583391280E0
3.733732334E0,-2.407278538E0,-1.202136993E0,6.164690256E-1,2.760463253E0
3.741733702E0,-2.547803402E0,-1.314946175E0,5.004705191E-1,2.910473562E0
3.749736983E0,-2.667901993E0,-1.529452324E0,3.810211420E-1,3.098725958E0
3.757739991E0,-2.705346107E0,-1.682667255E0,3.865214586E-1,3.209309192E0
3.765740499E0,-2.648443460E0,-1.727534771E0,4.020154476E-1,3.187514011E0
3.773742686E0,-2.511249781E0,-1.660869122E0,4.336708784E-1,3.041863266E0
3.781744913E0,-2.271689653E0,-1.570899010E0,3.941099644E-1,2.789914021E0
3.789750420E0,-2.018667221E0,-1.530408859E0,3.418810368E-1,2.556179037E0
3.797752178E0,-1.700472832E0,-1.486921310E0,2.578880787E-1,2.273554287E0
3.805751553E0,-1.497738123E0,-1.439846039E0,6.510758400E-2,2.078608933E0
3.813753936E0,-1.381212234E0,-1.407804489E0,-1.757487059E-1,1.980037455E0
3.821754209E0,-1.261695862E0,-1.365941048E0,-5.028963685E-1,1.926285584E0
3.829754639E0,-1.006042480E0,-1.232686043E0,-5.693553090E-1,1.689911779E0
3.837753741E0,-5.551276207E-1,-9.308443069E-1,-2.565793991E-1,1.113764242E0
3.845752842E0,-2.986633778E-1,-6.993150711E-1,8.279991150E-2,7.649164708E-1
3.853750928E0,-1.234333515E-1,-6.048870087E-1,3.276298046E-1,6.989029792E-1
3.861747725E0,-2.820205688E-2,-6.245307922E-1,4.966635704E-1,7.984414622E-1
3.869744913E0,-3.507566452E-2,-6.335382462E-1,4.673358202E-1,7.880379308E-1
3.877739795E0,-2.120521069E-1,-6.225919724E-1,2.395774126E-1,6.999887118E-1
3.885734249E0,-4.491744041E-1,-6.347255707E-1,2.363157272E-2,7.779412874E-1
3.893731436E0,-6.752758026E-1,-6.653032303E-1,-1.041588783E-1,9.536639187E-1
3.901730069E0,-7.726016045E-1,-7.241306305E-1,-3.611825109E-1,1.118807944E0
3.909727881E0,-8.280110359E-1,-8.256740570E-1,-4.416238368E-1,1.249948614E0
3.917726475E0,-8.376159668E-1,-9.364767075E-1,-5.428852439E-1,1.368690440E0
3.925725850E0,-8.927596807E-1,-1.003933907E0,-6.462491751E-1,1.490818947E0
3.933725381E0,-9.097647667E-1,-1.057093620E0,-7.015782595E-1,1.561195346E0
3.941726163E0,-9.283711910E-1,-1.124265671E0,-7.050374150E-1,1.619544418E0
3.949726202E0,-9.273154736E-1,-1.138768196E0,-6.302233338E-1,1.598088997E0
3.957726045E0,-7.254375219E-1,-1.091173172E0,-3.995914459E-1,1.369887518E0
3.965726202E0,-4.566679001E-1,-9.622697830E-1,-2.090846598E-1,1.085460778E0
3.973727725E0,-2.246075869E-1,-8.187694550E-1,-1.097124219E-1,8.560775689E-1
3.981728038E0,-1.225135326E-1,-7.368574142E-1,-1.108224392E-1,7.551490102E-1
3.989723741E0,-5.922865868E-2,-6.590347290E-1,-1.116016209E-1,6.710363104E-1
3.997718311E0,1.351630688E-2,-6.427040100E-1,-1.645937711E-1,6.635828844E-1
4.005716319E0,1.436452866E-1,-6.830434799E-1,-2.130348682E-1,7.297713470E-1
4.013715889E0,3.179112673E-1,-6.889209747E-1,-1.574152708E-1,7.748930576E-1
4.021713272E0,5.214965343E-1,-6.364860535E-1,-6.442776322E-2,8.253629918E-1
4.029709600E0,6.216759086E-1,-5.591335297E-1,-1.073533297E-2,8.361976361E-1
4.037708624E0,5.575292706E-1,-5.046958923E-1,3.256605566E-2,7.527399148E-1
4.045707295E0,4.203130603E-1,-5.450305939E-1,9.338319302E-3,6.883375779E-1
4.053705264E0,2.440326214E-1,-6.562519073E-1,-9.421090037E-2,7.064659793E-1
4.061704834E0,6.797796488E-2,-8.147935867E-1,-2.218623012E-1,8.471909309E-1
4.069702374E0,-5.419397354E-2,-9.774742126E-1,-3.367220163E-1,1.035265444E0
4.077702452E0,-9.565585852E-2,-1.067894936E0,-3.444306850E-1,1.126135930E0
4.085703077E0,-1.098427773E-1,-1.090888023E0,-2.020300627E-1,1.114862441E0
4.093703428E0,-1.024394035E-1,-1.103963852E0,2.007715404E-2,1.108888231E0
4.101704053E0,-5.833148956E-2,-1.107022285E0,2.563146055E-1,1.137804061E0
4.109704092E0,1.365016401E-1,-9.659824371E-1,4.507376850E-1,1.074671683E0
4.117704483E0,4.020125568E-1,-6.902675629E-1,4.216805100E-1,9.032706442E-1
4.125704913E0,6.877412796E-1,-4.234952927E-1,2.061433196E-1,8.335654736E-1
4.133704366E0,8.750839233E-1,-3.859081268E-1,-6.966859102E-2,9.589320455E-1
4.141704483E0,9.263724685E-1,-4.580020905E-1,-3.335101008E-1,1.085891732E0
4.149704600E0,8.522652388E-1,-5.201902390E-1,-4.150257111E-1,1.081295641E0
4.157705733E0,7.538115382E-1,-5.822315216E-1,-3.209334910E-1,1.005098844E0
4.165707061E0,6.394727826E-1,-6.010799408E-1,-2.846674323E-1,9.226364842E-1
4.173710030E0,4.292401373E-1,-5.671567917E-1,-3.717617691E-1,8.025713269E-1
4.181712256E0,1.765187383E-1,-5.665988922E-1,-4.499106109E-1,7.447232556E-1
4.189713350E0,-1.173113510E-1,-5.898704529E-1,-3.659375608E-1,7.040024167E-1
4.197712764E0,-3.734989762E-1,-6.943063736E-1,-1.854653060E-1,8.099137024E-1
4.205714405E0,-4.703307152E-1,-8.032007217E-1,8.804360032E-2,9.349299742E-1
4.213714639E0,-5.292011499E-1,-9.163007736E-1,2.761883438E-1,1.093590859E0
4.221717452E0,-5.996522903E-1,-9.379854202E-1,1.361398399E-1,1.121576379E0
4.229720381E0,-6.498442888E-1,-9.494733810E-1,-1.386035979E-1,1.158882332E0
4.237720499E0,-6.553543806E-1,-9.555797577E-1,-2.539572120E-1,1.186219332E0
4.245721124E0,-6.337728500E-1,-9.612665176E-1,-2.216997743E-1,1.172540888E0
4.253722022E0,-6.011211276E-1,-9.666128159E-1,-1.321405172E-1,1.145926726E0
4.261719795E0,-5.357909203E-1,-9.428634644E-1,-4.477030039E-2,1.085388319E0
4.269718389E0,-5.338450074E-1,-9.953880310E-1,-3.702014685E-2,1.130114293E0
4.277718663E0,-5.182657242E-1,-9.709806442E-1,7.242560387E-4,1.100637677E0
4.285720147E0,-4.456025362E-1,-9.558734894E-1,2.051967382E-2,1.054834966E0
4.293721827E0,-3.774853945E-1,-1.022134781E0,-1.003466249E-1,1.094223094E0
4.301721905E0,-4.244688749E-1,-1.073696136E0,-2.088549733E-1,1.173293492E0
4.309722413E0,-4.339199066E-1,-1.077176094E0,-1.990787983E-1,1.178230534E0
4.317723545E0,-3.733101487E-1,-1.027631760E0,-1.227899194E-1,1.100211282E0
4.325723038E0,-1.617608070E-1,-9.439449310E-1,2.720481157E-2,9.580911717E-1
4.333720303E0,2.532283068E-1,-8.067960739E-1,8.492225409E-2,8.498566170E-1
4.341717295E0,6.104843616E-1,-5.828256607E-1,-1.063185930E-2,8.440911935E-1
4.349716983E0,9.831106663E-1,-3.918199539E-1,-1.809948981E-1,1.073679939E0
4.357714288E0,1.119902968E0,-3.059082031E-1,-4.098544717E-1,1.231155220E0
4.365713389E0,1.068670750E0,-3.252401352E-1,-5.830318928E-1,1.260065278E0
4.373712569E0,9.039382935E-1,-3.976392746E-1,-5.808265209E-1,1.145679221E0
4.381712374E0,7.450232506E-1,-4.076042175E-1,-6.171733141E-1,1.049811289E0
4.389710147E0,6.885405779E-1,-3.888254166E-1,-6.259078383E-1,1.008481013E0
4.397707100E0,7.005708218E-1,-4.035634995E-1,-5.550509095E-1,9.806857226E-1
4.405704092E0,8.589421511E-1,-4.857139587E-1,-5.993161201E-1,1.154503998E0
4.413703077E0,1.060727835E0,-5.355024338E-1,-6.802812815E-1,1.369192834E0
4.421701241E0,1.138868093E0,-6.043758392E-1,-5.914058089E-1,1.418468019E0
4.429698467E0,1.039680600E0,-6.741237640E-1,-3.532646000E-1,1.288477581E0
4.437696436E0,7.926858664E-1,-7.830629349E-1,-3.402250707E-1,1.165028558E0
4.445693624E0,4.787528515E-1,-1.012414932E0,-4.636754990E-1,1.212098699E0
4.453689952E0,1.107826233E-1,-1.409810066E0,-5.705559254E-1,1.524916810E0
4.461687686E0,-2.418724298E-1,-1.744816780E0,-4.736252725E-1,1.824063806E0
4.469685538E0,-5.484874249E-1,-1.925865173E0,-1.252238750E-1,2.006358926E0
4.477685381E0,-6.736578941E-1,-1.990447521E0,2.568400800E-1,2.116993888E0
4.485686397E0,-4.263768196E-1,-1.919235229E0,5.686772466E-1,2.046620353E0
4.493685303E0,-4.628682137E-2,-1.825970650E0,7.995353937E-1,1.993882677E0
4.501681944E0,3.600449562E-1,-1.712507248E0,9.172469974E-1,1.975767066E0
4.509678741E0,6.523451805E-1,-1.506658554E0,6.952262521E-1,1.782950862E0
4.517676436E0,9.145545959E-1,-1.261758804E0,3.529062271E-1,1.597807308E0
4.525673819E0,1.171116114E0,-1.049741745E0,1.535761058E-1,1.580207677E0
4.533672334E0,1.518507242E0,-6.983699799E-1,1.145978570E-1,1.675326100E0
4.541670694E0,1.832453728E0,-3.800401688E-1,4.647007585E-2,1.872024749E0
4.549670264E0,2.210379362E0,-1.909942627E-1,-5.980712175E-2,2.219421687E0
4.557668428E0,2.396384954E0,-1.654796600E-1,-1.901759505E-1,2.409608113E0
4.565667530E0,2.325454712E0,-2.083644867E-1,-4.034510255E-1,2.369372935E0
4.573665069E0,2.063351870E0,-2.631206512E-1,-6.794190407E-1,2.188210147E0
4.581662100E0,1.752418756E0,-3.568706512E-1,-9.722504616E-1,2.035583238E0
4.589660655E0,1.314440489E0,-6.149101257E-1,-1.203983068E0,1.885588367E0
4.597661905E0,9.713561535E-1,-8.686227798E-1,-1.140799761E0,1.731895610E0
4.605666788E0,7.632963657E-1,-1.026176453E0,-7.138315439E-1,1.464655225E0
4.613668155E0,6.766607761E-1,-1.067021370E0,-2.834989727E-1,1.294903887E0
4.621668077E0,7.519068718E-1,-9.584999084E-1,1.641929150E-3,1.218231798E0
4.629670772E0,9.920220375E-1,-7.384624481E-1,1.858311892E-2,1.236842691E0
4.637676319E0,1.260049343E0,-4.890861511E-1,-1.490002871E-2,1.351721725E0
4.645680499E0,1.337397814E0,-3.453798294E-1,-2.864509821E-2,1.381571815E0
4.653683350E0,1.369482756E0,-3.275642395E-1,-3.262799978E-2,1.408490659E0
4.661685459E0,1.287081003E0,-4.677333832E-1,-8.329147100E-2,1.371965559E0
4.669690069E0,1.115565777E0,-7.427215576E-1,-1.540934443E-1,1.349024501E0
4.677694717E0,9.211854935E-1,-9.172267914E-1,-2.154225707E-1,1.317685313E0
4.685700264E0,7.554929256E-1,-1.019222260E0,-2.464905381E-1,1.292416791E0
4.693703428E0,6.786260605E-1,-1.042755127E0,-1.977221966E-1,1.259748249E0
4.701705538E0,6.829152107E-1,-1.031939507E0,-1.467343569E-1,1.246115284E0
4.709707959E0,7.763762474E-1,-9.431009293E-1,-1.750918627E-1,1.234040761E0
4.717710694E0,8.874390125E-1,-8.436260223E-1,-2.324597836E-1,1.246310723E0
4.725710069E0,1.006494045E0,-6.379671097E-1,-4.440271854E-2,1.192478049E0
4.733710459E0,1.107463121E0,-4.218750000E-1,2.692103386E-1,1.215288973E0
4.741713428E0,1.287950993E0,-3.199729919E-1,5.754414797E-1,1.446490018E0
4.749714444E0,1.551027060E0,-3.274316788E-1,7.916098833E-1,1.771875462E0
4.757713584E0,1.821119785E0,-3.293819427E-1,9.107609987E-1,2.062633107E0
4.765714991E0,1.974770069E0,-1.873989105E-1,8.758592606E-1,2.168401398E0
4.773715108E0,2.106459618E0,5.848503113E-2,7.795505524E-1,2.246840378E0
4.781717217E0,2.168411732E0,1.648340225E-1,6.507723331E-1,2.269952494E0
4.789717686E0,2.123301268E0,1.785011292E-1,5.596153736E-1,2.203052494E0
4.797718467E0,2.100123644E0,1.956663132E-1,5.089917183E-1,2.169764318E0
4.805718272E0,2.214091539E0,1.881866455E-1,4.040524960E-1,2.258511452E0
4.813719834E0,2.370997190E0,1.134500504E-1,2.535982132E-1,2.387218181E0
4.821724639E0,2.507004023E0,2.415084839E-2,1.566482782E-1,2.512009378E0
4.829726202E0,2.548344135E0,2.547645569E-2,1.465973854E-1,2.552684406E0
4.837727061E0,2.567305088E0,-6.926631927E-2,8.898818493E-2,2.569780562E0
4.845729092E0,2.518799782E0,-2.645578384E-1,2.961874008E-2,2.532828549E0
4.853727764E0,2.441556454E0,-4.399929047E-1,-4.897761345E-2,2.481368671E0
4.861727608E0,2.350610256E0,-4.665184021E-1,-5.165576935E-2,2.397014041E0
4.869724717E0,2.335536242E0,-4.445848465E-1,3.792071342E-2,2.377776945E0
4.877723624E0,2.433725595E0,-4.894781113E-1,1.123147011E-1,2.484999736E0
4.885721905E0,2.514936924E0,-6.259250641E-1,1.757690907E-1,2.597611343E0
4.893721749E0,2.549170971E0,-7.741680145E-1,2.740654945E-1,2.678193542E0
4.901724874E0,2.519718647E0,-8.609313965E-1,2.632453442E-1,2.675721032E0
4.909724834E0,2.487974882E0,-9.728631973E-1,1.603589058E-1,2.676228091E0
4.917724834E0,2.543680668E0,-1.109691620E0,6.185579300E-2,2.775887781E0
4.925724678E0,2.658739090E0,-1.213409901E0,9.877777100E-2,2.924211720E0
4.933723858E0,2.722254515E0,-1.131504536E0,2.147996426E-1,2.955860457E0
4.941725303E0,2.735296965E0,-9.450416565E-1,2.442383766E-1,2.904239247E0
4.949726475E0,2.710690975E0,-7.983036041E-1,1.412229538E-1,2.829324677E0
4.957726202E0,2.624406576E0,-8.344955444E-1,9.636402130E-3,2.753903693E0
4.965727139E0,2.455242872E0,-1.019536018E0,-7.747077942E-2,2.659637753E0
4.973730030E0,2.216917038E0,-1.180336475E0,-2.076711655E-1,2.520127509E0
4.981731670E0,2.068186998E0,-1.254225254E0,-2.997252941E-1,2.437275877E0
4.989731006E0,2.058966160E0,-1.269531727E0,-2.072913647E-1,2.427760730E0
4.997730420E0,2.208620548E0,-1.365505695E0,-5.385804176E-2,2.597212201E0
5.005730538E0,2.430585623E0,-1.437345982E0,4.848003387E-3,2.823779992E0
5.013732217E0,2.735113382E0,-1.357067585E0,-4.062891006E-3,3.053275970E0
5.021731280E0,2.977906466E0,-1.177203655E0,4.711198807E-2,3.202491983E0
5.029733389E0,3.170294285E0,-9.513969421E-1,1.493043900E-1,3.313338768E0
5.037732569E0,3.196566820E0,-7.767276764E-1,7.101583481E-2,3.290347788E0
5.045732530E0,3.035228968E0,-6.531295776E-1,-2.873070240E-1,3.117970246E0
5.053733545E0,2.870149136E0,-5.556077957E-1,-7.643688917E-1,3.021707445E0
5.061736670E0,2.795105934E0,-4.057683945E-1,-1.236177921E0,3.083083039E0
5.069737920E0,2.822279930E0,-3.229722977E-1,-1.463276386E0,3.195426872E0
5.077740381E0,2.936833382E0,-3.214616776E-1,-1.464153767E0,3.297282847E0
5.085744014E0,3.045952559E0,-3.919124603E-1,-1.273362160E0,3.324586223E0
5.093747217E0,3.058164835E0,-4.449205399E-1,-1.015881062E0,3.253050995E0
5.101749834E0,2.905962706E0,-4.461078644E-1,-9.790612459E-1,3.098740453E0
5.109750616E0,2.566977262E0,-4.585847855E-1,-1.128611803E0,2.841379396E0
5.117751514E0,2.205058098E0,-4.476633072E-1,-1.348163962E0,2.623019199E0
5.125750616E0,2.019262314E0,-4.277420044E-1,-1.544274688E0,2.577822303E0
5.133747725E0,1.895817995E0,-3.567047119E-1,-1.872731566E0,2.688584691E0
5.141748311E0,1.798417568E0,-3.294830322E-1,-2.118459225E0,2.798344922E0
5.149745420E0,1.663164616E0,-3.085374832E-1,-2.138745785E0,2.726819658E0
5.157743858E0,1.483965635E0,-3.234910965E-1,-2.054082394E0,2.554614448E0
5.165743428E0,1.207539082E0,-3.831968307E-1,-2.110241413E0,2.461322666E0
5.173743936E0,9.542608261E-1,-4.520111084E-1,-2.112387896E0,2.361590648E0
5.181743936E0,6.672856808E-1,-4.674921036E-1,-1.775153279E0,1.953199481E0
5.189744991E0,4.524607658E-1,-3.669042587E-1,-1.205057979E0,1.338470848E0
5.197745577E0,3.065931797E-1,-1.699485779E-1,-5.311949253E-1,6.364353429E-1
5.205744522E0,2.714228630E-1,7.977581024E-2,-1.899933815E-2,2.835410470E-1
5.213745342E0,3.778934479E-1,3.529663086E-1,2.592301369E-1,5.784366316E-1
5.221746163E0,6.175885201E-1,6.212205887E-1,1.466875076E-1,8.881710560E-1
5.229748467E0,9.684767723E-1,9.944601059E-1,-3.075590134E-1,1.421791373E0
5.237750850E0,1.196797848E0,1.286049843E0,-5.597813129E-1,1.843801618E0
5.245752022E0,1.274643421E0,1.505488396E0,-5.265946388E-1,2.041693678E0
5.253753155E0,1.116060972E0,1.613465309E0,-3.174819946E-1,1.987374452E0
5.261751983E0,8.897805214E-1,1.572736740E0,-4.532384872E-2,1.807557601E0
5.269752178E0,6.502451897E-1,1.474071503E0,3.611812592E-1,1.651107962E0
5.277753389E0,3.784036636E-1,1.402803421E0,4.752175808E-1,1.528685226E0
5.285755616E0,-1.156127453E-1,1.219326973E0,4.812333584E-1,1.315944573E0
5.293759834E0,-7.164793015E-1,9.326171875E-1,5.160095692E-1,1.284283179E0
5.301763702E0,-1.491593599E0,5.167016983E-1,1.001719713E0,1.869565322E0
5.309765147E0,-2.039276600E0,1.191730499E-1,1.654037952E0,2.628439236E0
5.317768389E0,-2.334129810E0,-2.259168625E-1,2.009019375E0,3.087937702E0
5.325770420E0,-2.315950155E0,-4.461469650E-1,2.046896458E0,3.122892464E0
5.333770967E0,-2.070012569E0,-5.124835968E-1,1.898584366E0,2.855208236E0
5.341769170E0,-1.837372780E0,-3.241376877E-1,1.718735933E0,2.536741449E0
5.349768350E0,-1.654897451E0,-6.333827972E-2,1.357769489E0,2.141549742E0
5.357766045E0,-1.728818655E0,3.460597992E-2,9.912853241E-1,1.993152806E0
5.365765538E0,-1.991826057E0,-1.117706299E-2,8.920109272E-1,2.182470954E0
5.373765889E0,-2.062728405E0,-2.039127350E-1,1.113409042E0,2.352893659E0
5.381764053E0,-1.875852942E0,-4.143943787E-1,1.211951733E0,2.271425536E0
5.389762256E0,-1.512984514E0,-4.933872223E-1,1.155856848E0,1.966865055E0
5.397761709E0,-1.218035698E0,-5.550241470E-1,1.080339193E0,1.720114978E0
5.405759092E0,-9.436360598E-1,-5.373344421E-1,1.096635580E0,1.543303895E0
5.413758975E0,-7.089961767E-1,-4.075546265E-1,1.054325581E0,1.334308353E0
5.421762530E0,-4.987536669E-1,-1.399612427E-2,8.771002293E-1,1.009086678E0
5.429763702E0,-4.273618460E-1,4.319372177E-1,6.009557247E-1,8.546085013E-1
5.437762608E0,-3.934693336E-1,7.373847961E-1,3.263211250E-1,8.972401745E-1
5.445759874E0,-4.156244993E-1,6.723480225E-1,-6.144213676E-2,7.928245228E-1
5.453756749E0,-3.848661184E-1,5.141429901E-1,-6.693605185E-1,9.276359453E-1
5.461752530E0,-1.876518726E-1,5.520401001E-1,-1.188169479E0,1.323521140E0
5.469751006E0,7.532286644E-2,6.185894012E-1,-1.867176294E0,1.968419085E0
5.477748038E0,1.796975136E-1,5.990095139E-1,-2.477692604E0,2.555399036E0
5.485742725E0,2.396925688E-1,4.699773788E-1,-2.950078964E0,2.996881239E0
5.493740499E0,2.331355810E-1,4.288206100E-1,-3.018170118E0,3.057382897E0
5.501739561E0,2.297548056E-1,3.687353134E-1,-2.888548851E0,2.921038765E0
5.509738350E0,2.718007565E-1,1.176176071E-1,-2.719783306E0,2.735860154E0
5.517738663E0,5.243690014E-1,-8.446693420E-2,-2.589524984E0,2.643432836E0
5.525737764E0,9.583419561E-1,-1.271953583E-1,-2.426511765E0,2.612002547E0
5.533737842E0,1.313705325E0,-6.827449799E-2,-2.256767273E0,2.612179476E0
5.541737022E0,1.621986389E0,1.348590851E-1,-1.797846198E0,2.425134588E0
5.549735303E0,1.740682960E0,3.192672729E-1,-1.217761993E0,2.148220899E0
5.557732061E0,1.737692714E0,4.464836121E-1,-6.407599449E-1,1.905123852E0
5.565732295E0,1.704399109E0,3.441982269E-1,-3.786405325E-1,1.779555392E0
5.573731709E0,1.745346427E0,1.857109070E-1,-2.851994038E-1,1.778218600E0
5.581729444E0,1.888498187E0,2.391262054E-1,-1.962462664E-1,1.913666466E0
5.589727686E0,1.878498912E0,4.562339783E-1,-5.267417431E-2,1.933825787E0
5.597725069E0,1.626310229E0,3.765134811E-1,-2.300846577E-2,1.669483978E0
5.605723975E0,9.413471222E-1,-9.656620026E-2,-2.890437841E-1,9.894471914E-1
5.613722061E0,3.171317577E-1,-5.842008591E-1,-6.930302382E-1,9.602885538E-1
5.621720967E0,-3.394139409E-1,-9.366054535E-1,-1.079550028E0,1.468965575E0
5.629719795E0,-8.024675846E-1,-1.177674294E0,-1.378017902E0,1.982373402E0
5.637719834E0,-1.153096676E0,-1.350121498E0,-1.646405220E0,2.421385998E0
5.645718702E0,-1.276299715E0,-1.453487396E0,-1.656281471E0,2.546533896E0
5.653718858E0,-1.078554869E0,-1.373157501E0,-1.376767039E0,2.223584855E0
5.661718702E0,-7.917704582E-1,-1.201017380E0,-1.072563171E0,1.794361993E0
5.669718389E0,-3.840343952E-1,-9.042081833E-1,-8.643589020E-1,1.308507228E0
5.677719014E0,2.479284406E-1,-5.213871002E-1,-4.602156878E-1,7.383166659E-1
5.685719170E0,6.848926544E-1,-2.487821579E-1,-5.417895317E-2,7.306886267E-1
5.693722725E0,9.032874107E-1,-5.173969269E-2,2.991204262E-1,9.529313572E-1
5.701728389E0,8.813582063E-1,-2.579116821E-2,5.326328278E-1,1.030123877E0
5.709731709E0,8.646332026E-1,-1.073455811E-2,8.433015347E-1,1.207834129E0
5.717733819E0,1.037338138E0,9.425640106E-2,1.203133106E0,1.591378004E0
5.725735733E0,1.260767817E0,2.140026093E-1,1.708503246E0,2.134084335E0
5.733735577E0,1.230319858E0,2.003459930E-1,1.972333193E0,2.333221741E0
5.741731709E0,1.110208511E0,5.081558228E-2,1.978824854E0,2.269557879E0
5.749731202E0,1.037415028E0,-4.831218719E-2,1.879023552E0,2.146926528E0
5.757732334E0,8.753773570E-1,-1.222677231E-1,1.768928766E0,1.977458949E0
5.765734795E0,5.366165638E-1,-3.692932129E-1,1.668597460E0,1.791243226E0
5.773733584E0,1.417313665E-1,-6.488695145E-1,1.484772444E0,1.626551148E0
5.781731827E0,-4.414509535E-1,-1.005766869E0,1.235543013E0,1.653182529E0
5.789734092E0,-9.419504404E-1,-1.285261154E0,8.897144794E-1,1.825036636E0
5.797735967E0,-1.299809217E0,-1.506541252E0,3.877372742E-1,2.027192823E0
5.805738741E0,-1.360164881E0,-1.358151436E0,-7.195234299E-2,1.923486669E0
5.813741553E0,-1.199295282E0,-1.040767670E0,-2.197766304E-1,1.603062158E0
5.821744014E0,-8.968545198E-1,-7.671833038E-1,1.216845512E-1,1.186476035E0
5.829747764E0,-6.945708990E-1,-6.573724747E-1,4.736359119E-1,1.067191773E0
5.837749092E0,-6.821205616E-1,-6.819849014E-1,5.387029648E-1,1.104804395E0
5.845751280E0,-6.101582646E-1,-4.812173843E-1,5.593855381E-1,9.574839211E-1
5.853750733E0,-2.813295126E-1,-5.250358582E-2,6.488945484E-1,7.092017034E-1
5.861753233E0,7.076860666E-1,6.506423950E-1,8.687713146E-1,1.295730949E0
5.869755811E0,1.673409700E0,1.168753624E0,8.884639740E-1,2.226129666E0
5.877757569E0,2.163682938E0,1.400556564E0,5.057678223E-1,2.626572602E0
5.885760147E0,1.975713253E0,1.398206711E0,7.236433029E-2,2.421499837E0
5.893764327E0,1.397115946E0,1.114634514E0,-2.266917229E-1,1.801591575E0
5.901765186E0,7.179183960E-1,5.394163132E-1,-3.823761940E-1,9.760063196E-1
5.909768663E0,2.065911293E-1,9.044647217E-2,-4.312164783E-1,4.866293356E-1
5.917771280E0,-3.977874517E-1,-2.800092697E-1,-3.549141884E-1,6.021661972E-1
5.925775420E0,-9.398347139E-1,-5.922822952E-1,-2.710363865E-1,1.143480795E0
5.933775069E0,-1.300282359E0,-7.437305450E-1,-1.330518723E-1,1.503852432E0
5.941774053E0,-9.542466402E-1,-4.746189117E-1,4.126217365E-1,1.142850147E0
5.949775420E0,-2.712303400E-1,1.118402481E-1,9.585125446E-1,1.002407321E0
5.957778233E0,6.832516193E-2,5.132951736E-1,1.017516375E0,1.141700414E0
5.965777608E0,1.936579943E-1,7.317924500E-1,9.644470215E-1,1.226043093E0
5.973776514E0,2.750899196E-1,8.219299316E-1,8.209266663E-1,1.193802273E0
5.981774756E0,1.541953683E-1,6.402063370E-1,4.368333817E-1,7.902301999E-1
5.989776163E0,-3.402044773E-1,6.178789139E-1,2.428350449E-1,7.459774109E-1
5.997778272E0,-7.120872736E-1,4.965925217E-1,2.045354843E-1,8.919120933E-1
6.005778741E0,-7.410641909E-1,4.295883179E-1,3.734426498E-1,9.344419033E-1
6.013779053E0,-4.017827511E-1,5.650110245E-1,5.290560722E-1,8.721050191E-1
6.021782959E0,1.228135824E-1,8.585472107E-1,6.893844604E-1,1.107897749E0
6.029788819E0,5.641803145E-1,1.309140205E0,9.187326431E-1,1.695941383E0
6.037795069E0,7.538809776E-1,1.700903893E0,1.209322929E0,2.218980065E0
6.045800577E0,8.024696112E-1,1.939128876E0,1.445380211E0,2.548195877E0
6.053805538E0,7.522245049E-1,2.198923111E0,1.662195683E0,2.857271258E0
6.061806397E0,6.134195328E-1,2.398386955E0,1.729360580E0,3.019806538E0
6.069809795E0,6.471867561E-1,2.717175484E0,2.061007023E0,3.471259606E0
6.077813038E0,9.210518003E-1,3.069777489E0,2.536939621E0,4.087533840E0
6.085815147E0,1.208509564E0,3.407912254E0,2.985965729E0,4.689387234E0
6.093818780E0,1.265011907E0,3.549679756E0,3.219551086E0,4.956409052E0
6.101822178E0,7.660750747E-1,3.427391052E0,3.385823250E0,4.878286536E0
6.109826006E0,-3.933274746E-2,3.013263702E0,3.888063908E0,4.919181452E0
6.117827491E0,-1.270556331E0,2.275513649E0,4.700498104E0,5.374658890E0
6.125829170E0,-2.544857979E0,1.741207123E0,5.182644367E0,6.030580985E0
6.133827999E0,-3.963654995E0,1.441900253E0,5.509835720E0,6.938870724E0
6.141831670E0,-4.831807613E0,1.418392181E0,5.516164780E0,7.469021025E0
6.149836045E0,-5.509253025E0,1.380173683E0,5.272746086E0,7.749748356E0
6.157835186E0,-5.907989979E0,1.244183540E0,4.951850414E0,7.808531283E0
6.165838311E0,-6.244927406E0,1.048548698E0,4.465910435E0,7.748737232E0
6.173839678E0,-6.359170914E0,8.143339157E-1,4.031415462E0,7.573275716E0
6.181840967E0,-6.221944809E0,4.540195465E-1,3.789590836E0,7.299296518E0
6.189844170E0,-5.915126801E0,1.730546951E-1,3.514727592E0,6.882730784E0
6.197847295E0,-5.621953011E0,1.558465958E-1,3.095150948E0,6.419548520E0
6.205845772E0,-5.048999310E0,3.353290558E-1,2.713150501E0,5.741604762E0
6.213844795E0,-4.478800774E0,5.674724579E-1,2.678698540E0,5.249486377E0
6.221843741E0,-3.934930801E0,8.768777847E-1,2.913615704E0,4.974108114E0
6.229843897E0,-3.448688745E0,1.081974983E0,3.006743431E0,4.701556124E0
6.237843389E0,-2.673474312E0,1.317673683E0,2.876039505E0,4.141899572E0
6.245845459E0,-1.979268551E0,1.388792992E0,2.621419430E0,3.566243093E0
6.253845655E0,-1.452524900E0,1.221896172E0,2.307644367E0,2.987989519E0
6.261847491E0,-1.081510544E0,9.615888596E-1,2.146541595E0,2.588814210E0
6.269851124E0,-7.423365116E-1,5.829229355E-1,2.138623238E0,2.337642402E0
6.277854170E0,-6.769056320E-1,3.453626633E-1,2.277340174E0,2.400782137E0
6.285857569E0,-9.358267784E-1,2.344026566E-1,2.405518770E0,2.591763284E0
6.293859678E0,-1.455940962E0,-1.428508759E-2,2.166722775E0,2.610489557E0
6.301865147E0,-2.384903193E0,-5.390853882E-1,1.740818501E0,3.001470530E0
6.309868858E0,-3.038335562E0,-1.187878609E0,1.591890097E0,3.629965930E0
6.317867999E0,-3.440896034E0,-1.824733257E0,2.137533665E0,4.442799472E0
6.325870264E0,-3.775396585E0,-2.518105030E0,3.481940269E0,5.719998283E0
6.333874600E0,-3.887436867E0,-3.196316719E0,4.531654358E0,6.772333215E0
6.341876319E0,-3.425204992E0,-3.619789600E0,5.509767532E0,7.429161746E0
6.349877686E0,-2.599917173E0,-3.677071095E0,5.798762798E0,7.342075397E0
6.357880264E0,-1.421984196E0,-3.339268684E0,5.257958412E0,6.388965571E0
6.365887452E0,-3.280751705E-1,-3.035471439E0,4.628361225E0,5.544677430E0
6.373894170E0,9.135121107E-1,-2.828312397E0,3.908472061E0,4.910194420E0
6.381902725E0,1.658941031E0,-2.793037415E0,3.454085350E0,4.741713714E0
6.389909991E0,1.922430277E0,-2.995917797E0,2.909802914E0,4.597631413E0
6.397912100E0,1.745401144E0,-3.279822826E0,2.357945442E0,4.400405622E0
6.405916202E0,1.484194875E0,-3.607463837E0,1.628888965E0,4.227281516E0
6.413921045E0,1.338864923E0,-3.714993477E0,1.010889173E0,4.076227758E0
6.421926319E0,1.076651812E0,-3.469488144E0,-1.684199572E-1,3.636604513E0
6.429929444E0,6.239224672E-1,-3.148058414E0,-1.513119698E0,3.548109672E0
6.437931280E0,6.483364105E-2,-2.865928650E0,-2.876954794E0,4.061356832E0
6.445936670E0,-4.312602282E-1,-2.762707710E0,-3.489535570E0,4.471621381E0
6.453941670E0,-9.916039705E-1,-2.738112450E0,-3.999820948E0,4.947636389E0
6.461945420E0,-1.492772460E0,-2.486859798E0,-4.605959892E0,5.443134006E0
6.469951944E0,-1.880392909E0,-1.908886909E0,-5.529827118E0,6.144812013E0
6.477958233E0,-1.952131271E0,-1.085830688E0,-6.253415108E0,6.640410025E0
6.485963272E0,-1.869165778E0,-5.683135986E-1,-6.206735611E0,6.506944598E0
6.493966749E0,-1.682691813E0,-5.527524948E-1,-6.039248466E0,6.293608591E0
6.501971553E0,-1.478380680E0,-8.337182999E-1,-5.641551495E0,5.891332524E0
6.509974249E0,-1.257894993E0,-9.232654572E-1,-5.230121613E0,5.457920025E0
6.517977999E0,-1.232919216E0,-5.775775909E-1,-4.401923180E0,4.607668971E0
6.525978897E0,-1.341949463E0,1.156139374E-2,-3.012532949E0,3.297926136E0
6.533981905E0,-1.195710778E0,4.462451935E-1,-1.536248684E0,1.997227843E0
6.541984756E0,-8.275983334E-1,7.704343796E-1,8.672785759E-2,1.134023746E0
6.549987022E0,-3.557844162E-1,9.741926193E-1,1.048873663E0,1.475049074E0
6.557987530E0,2.800072432E-1,1.350225449E0,1.831342220E0,2.292450031E0
6.565991436E0,8.628811240E-1,1.836887360E0,2.401727438E0,3.144362208E0
6.573994834E0,1.686728597E0,2.310093880E0,2.991038322E0,4.138586394E0
6.581997881E0,2.292304516E0,2.424971581E0,3.212338924E0,4.631875271E0
6.590001475E0,2.474391460E0,2.436677933E0,3.281860828E0,4.778140114E0
6.598001709E0,2.122317314E0,2.526977539E0,3.203369379E0,4.599067475E0
6.606002920E0,1.565020323E0,2.456620216E0,3.136651993E0,4.280520672E0
6.614006788E0,9.186886549E-1,2.010201454E0,3.272128344E0,3.948635540E0
6.622010772E0,2.750645876E-1,1.382449150E0,3.240113020E0,3.533434386E0
6.630013858E0,-2.096199989E-1,6.784925461E-1,2.931024790E0,3.015824762E0
6.638019053E0,-1.568207741E-1,3.479204178E-1,2.781029701E0,2.807092370E0
6.646021553E0,-3.621900082E-2,1.130428314E-1,2.571434021E0,2.574172376E0
6.654023975E0,-6.791937351E-2,-8.341217041E-2,2.303769112E0,2.306278984E0
6.662027647E0,-1.586275101E-1,-2.557563782E-1,2.103506565E0,2.124926794E0
6.670031670E0,-2.616343498E-1,-5.523109436E-1,1.810686350E0,1.911042901E0
6.678035264E0,-2.872761488E-1,-9.685411453E-1,1.639679790E0,1.925915198E0
6.686037295E0,-3.352042437E-1,-1.116552353E0,1.899980783E0,2.229120459E0
6.694039327E0,-2.940876484E-1,-1.192340851E0,2.225231647E0,2.541617622E0
6.702045069E0,-3.500413895E-2,-1.276812553E0,2.225552082E0,2.566039294E0
6.710050225E0,4.160785079E-1,-1.221109390E0,1.818696499E0,2.229772729E0
6.718053350E0,1.047194362E0,-1.015670776E0,1.287520647E0,1.945742165E0
6.726056944E0,1.817963958E0,-8.376455307E-1,6.815162897E-1,2.114499336E0
6.734060030E0,2.328323126E0,-7.830457687E-1,3.720628023E-1,2.484487871E0
6.742061749E0,2.449913740E0,-6.460638046E-1,2.664191723E-1,2.547637131E0
6.750066045E0,2.027373314E0,-4.745721817E-1,1.431920528E-1,2.087094936E0
6.758069092E0,1.411324024E0,-4.838457108E-1,-2.459450960E-1,1.512094958E0
6.766072413E0,1.033824921E0,-8.038463593E-1,-7.867572308E-1,1.527727029E0
6.774075069E0,1.025829196E0,-1.086061478E0,-1.085064292E0,1.846407211E0
6.782078077E0,1.492007375E0,-1.167239189E0,-9.791641235E-1,2.132438912E0
6.790079600E0,2.018002987E0,-1.033105850E0,-5.379531384E-1,2.330029470E0
6.798082920E0,2.363780975E0,-9.842777252E-1,-2.324550152E-1,2.571050072E0
6.806087530E0,2.459334612E0,-1.020445824E0,-3.639898300E-1,2.687401163E0
6.814092959E0,2.298948288E0,-1.084338188E0,-6.390860081E-1,2.620950870E0
6.822097959E0,1.818283796E0,-1.142943382E0,-8.021354675E-1,2.292574284E0
6.830100303E0,9.731775522E-1,-1.287573814E0,-8.713116646E-1,1.834149637E0
6.838105655E0,1.890399456E-1,-1.389367104E0,-9.311590195E-1,1.683191661E0
6.846112842E0,-3.271185160E-1,-1.429812431E0,-1.121057272E0,1.846114709E0
6.854117452E0,-3.662494421E-1,-1.491562843E0,-1.176355600E0,1.934608712E0
6.862119756E0,-4.770594835E-1,-1.615882874E0,-1.148140192E0,2.038845044E0
6.870126241E0,-7.261341810E-1,-1.769515514E0,-1.052145243E0,2.182994644E0
6.878130264E0,-1.000144482E0,-2.039073467E0,-7.499525547E-1,2.391764709E0
6.886135850E0,-1.163046360E0,-2.266648293E0,-5.654108524E-1,2.609609310E0
6.894140733E0,-1.563654661E0,-2.361021042E0,-4.706785679E-1,2.870709768E0
6.902142725E0,-2.071560383E0,-2.287681580E0,-4.083733559E-1,3.113136397E0
6.910147334E0,-2.472993612E0,-2.089869022E0,-1.636164188E-1,3.241916142E0
6.918153975E0,-2.788150311E0,-1.968065739E0,-1.115536690E-1,3.414602338E0
6.926158975E0,-2.663798571E0,-1.817336559E0,-2.777767181E-2,3.224795589E0
6.934164444E0,-1.993242621E0,-1.586160660E0,3.784012794E-2,2.547617252E0
6.942169522E0,-1.337229490E0,-1.393722534E0,-3.893613815E-2,1.931880233E0
6.950173506E0,-6.072381735E-1,-1.178401947E0,-2.252185345E-1,1.344653389E0
6.958179795E0,-6.739449501E-2,-9.686412811E-1,-3.409247398E-1,1.029095539E0
6.966185850E0,4.104632139E-1,-7.591247559E-1,-3.052058220E-1,9.153693455E-1
6.974194092E0,4.996443987E-1,-5.547294617E-1,-1.587257385E-1,7.632582531E-1
6.982199483E0,1.786465645E-1,-4.123029709E-1,-3.912811279E-1,5.958265317E-1
6.990203467E0,-4.007887840E-2,-4.232778549E-1,-6.784756184E-1,8.006869698E-1
6.998208077E0,-2.334743738E-1,-4.353008270E-1,-7.643733025E-1,9.100899070E-1
7.006211084E0,-5.164954662E-1,-2.616205215E-1,-8.354723454E-1,1.016477695E0
7.014213428E0,-5.678679943E-1,6.706237793E-3,-8.729906082E-1,1.041456497E0
7.022216163E0,-3.884685040E-1,-2.642631531E-3,-4.273147583E-1,5.775055538E-1
7.030217608E0,-3.497006893E-1,-1.119241714E-1,2.051155567E-1,4.205829096E-1
7.038219327E0,-5.879942179E-1,-2.629032135E-1,3.432235718E-1,7.298340360E-1
7.046221241E0,-7.371932268E-1,-4.989957809E-1,2.507433891E-1,9.248366830E-1
7.054223780E0,-6.318842173E-1,-7.491331100E-1,7.968807220E-2,9.832742595E-1
7.062225694E0,-4.273236990E-1,-8.317594528E-1,3.807735443E-2,9.358841894E-1
7.070225264E0,-2.669912577E-1,-8.142747879E-1,2.156605721E-1,8.836499557E-1
7.078227452E0,-2.980202436E-1,-7.589311600E-1,4.777443409E-1,9.450038235E-1
7.086230577E0,-4.866685867E-1,-5.983409882E-1,7.774116993E-1,1.095092326E0
7.094233584E0,-5.096693039E-1,-4.139719009E-1,8.330209255E-1,1.060688171E0
7.102232569E0,-3.465563059E-1,-2.488775253E-1,3.951570988E-1,5.815414246E-1
7.110231397E0,-1.202262640E-1,-1.415395737E-1,-6.014347076E-3,1.858062912E-1
7.118230694E0,-1.428544521E-2,3.297901154E-2,1.752109528E-1,1.788590705E-1
7.126227803E0,-2.513766289E-1,-6.404590607E-2,1.654858589E-1,3.076973466E-1
7.134224717E0,-6.371372938E-1,-5.095691681E-1,1.261973381E-2,8.159435801E-1
7.142223038E0,-7.693481445E-1,-9.741725922E-1,-5.875253677E-2,1.242723086E0
7.150223545E0,-8.522008657E-1,-1.253295898E0,1.216144562E-1,1.520456182E0
7.158222764E0,-9.020601511E-1,-1.155441284E0,2.960369587E-1,1.495458110E0
7.166223584E0,-9.323111773E-1,-8.517293930E-1,3.620047569E-1,1.313656932E0
7.174222881E0,-8.251553774E-1,-5.552053452E-1,5.399451256E-1,1.131669170E0
7.182222413E0,-6.889388561E-1,-3.624505997E-1,6.448135376E-1,1.010837120E0
7.190223038E0,-4.812043905E-1,-2.534694672E-1,3.533213139E-1,6.485679510E-1
7.198222569E0,-3.371717930E-1,-1.393575668E-1,-1.381063461E-2,3.650973611E-1
7.206222881E0,-2.370902300E-1,2.172851562E-2,-4.169650078E-1,4.801496884E-1
7.214223624E0,-2.086156607E-1,1.122093201E-1,-5.277006626E-1,5.784284007E-1
7.222222217E0,1.452411413E-1,1.155796051E-1,-5.450656414E-1,5.758039490E-1
7.230221788E0,4.671142101E-1,1.029739380E-1,-3.516201973E-1,5.936632719E-1
7.238222725E0,7.283449769E-1,1.138372421E-1,-2.320480347E-1,7.728464359E-1
7.246223897E0,7.362144589E-1,2.065906525E-1,-2.473988533E-1,8.036775596E-1
7.254223897E0,4.365080595E-1,2.113647461E-1,-1.123685837E-1,4.978363592E-1
7.262224991E0,-5.723488331E-2,8.263206482E-2,3.868727684E-1,3.997179367E-1
7.270228936E0,-4.555484056E-1,-8.725929260E-2,8.840291500E-1,9.983216276E-1
7.278229209E0,-5.304734707E-1,-1.701440811E-1,9.814507961E-1,1.128537450E0
7.286230499E0,-4.606736898E-1,-2.718067169E-1,9.612445831E-1,1.100041039E0
7.294229795E0,-4.389315844E-1,-3.166494370E-1,9.172213078E-1,1.064998934E0
7.302228077E0,-3.663184643E-1,-3.619651794E-1,8.869724274E-1,1.025635459E0
7.310229249E0,-3.682935238E-1,-3.835906982E-1,7.755372524E-1,9.403403497E-1
7.318231045E0,-4.529893398E-1,-4.481801987E-1,4.204494953E-1,7.634412948E-1
7.326234795E0,-5.475695133E-1,-4.791011810E-1,-2.025885582E-1,7.552565375E-1
7.334237725E0,-6.402766705E-1,-4.292383194E-1,-5.214242935E-1,9.306358275E-1
7.342240499E0,-9.231091738E-1,-4.268579483E-1,-8.161678314E-1,1.304020009E0
7.350242139E0,-1.098821878E0,-4.291687012E-1,-1.063639641E0,1.588371676E0
7.358244913E0,-1.138548255E0,-3.170976639E-1,-5.087313652E-1,1.286720894E0
7.366247452E0,-9.579414129E-1,-6.063060760E-1,-3.637652397E-1,1.190623349E0
7.374251553E0,-7.644964457E-1,-7.617273331E-1,-3.131384850E-1,1.123716626E0
7.382253389E0,-5.874739885E-1,-6.876211166E-1,-1.094160080E-1,9.109996433E-1
7.390255499E0,-1.310273409E-1,-3.942508698E-1,-2.787852287E-1,5.003230118E-1
7.398257100E0,3.223755360E-1,3.305721283E-2,-5.481815338E-1,6.368059041E-1
7.406255772E0,6.178233027E-1,3.505935669E-1,-3.829627037E-1,8.070203932E-1
7.414253545E0,6.357095838E-1,1.509876251E-1,-2.004313469E-1,6.834447034E-1
7.422252295E0,6.622256041E-1,1.035594940E-1,-3.933916092E-1,7.771899881E-1
7.430250967E0,7.968863249E-1,1.475410461E-1,-5.849742889E-1,9.994954196E-1
7.438251905E0,8.635253310E-1,3.916025162E-1,-8.118820190E-1,1.248271181E0
7.446252100E0,8.416790366E-1,5.212678909E-1,-4.113111496E-1,1.072063747E0
7.454252569E0,1.040709019E0,5.310268402E-1,5.122385025E-1,1.275716681E0
7.462250186E0,2.340838909E-1,3.057775497E-1,1.490845919E0,1.539778143E0
7.470245538E0,-1.111183047E0,-4.734811783E-1,2.088427782E0,2.412559386E0
7.478241944E0,-1.526036143E0,-1.261170864E0,2.202427387E0,2.961422742E0
7.486240655E0,-1.437872529E0,-1.370986462E0,2.111185312E0,2.898997190E0
7.494239756E0,-1.090834737E0,-9.699764252E-1,2.031340837E0,2.501423652E0
7.502239131E0,-5.704709291E-1,-6.233816147E-1,1.905953407E0,2.084874123E0
7.510238663E0,-1.451666355E-1,-2.582359314E-1,1.651060820E0,1.677426892E0
7.518237920E0,-5.635929108E-2,-1.365127563E-1,1.215603113E0,1.224541968E0
7.526236905E0,1.360762119E-2,-5.819702148E-2,4.863924980E-1,4.900507349E-1
7.534234952E0,5.372488499E-2,1.854887009E-1,-2.494072914E-1,3.154305287E-1
7.542230420E0,2.262213826E-1,5.061569214E-1,-8.713469505E-1,1.032771248E0
7.550228038E0,4.535825849E-1,5.971784592E-1,-1.112549782E0,1.341687851E0
7.558224717E0,6.632245779E-1,6.113758087E-1,-1.241524696E0,1.534610958E0
7.566221397E0,8.436305523E-1,6.159219742E-1,-1.185549736E0,1.580063468E0
7.574217334E0,8.906883001E-1,5.468683243E-1,-9.299926758E-1,1.399027158E0
7.582215108E0,5.998199582E-1,3.188228607E-1,-7.680487633E-1,1.025344284E0
7.590215264E0,3.878928423E-1,-1.610813141E-1,-2.182729244E0,2.222771918E0
7.598214092E0,-1.468187571E-1,3.522310257E-1,-1.444800854E0,1.494346663E0
7.606211241E0,-1.228874922E-1,3.821401596E-1,-8.293151855E-3,4.014987094E-1
7.614208272E0,6.087796092E-1,4.712638855E-1,1.079397917E0,1.325821302E0
7.622203663E0,8.596746922E-1,3.985137939E-1,1.584970236E0,1.846614326E0
7.630202920E0,7.784461379E-1,2.803707123E-1,1.707275629E0,1.897202203E0
7.638202686E0,5.985109806E-1,1.941204071E-1,1.423903942E0,1.556727517E0
7.646203780E0,4.594864845E-1,5.375862122E-3,9.542222023E-1,1.059101856E0
7.654205967E0,5.440604091E-1,-1.330776215E-1,4.840197563E-1,7.402611070E-1
7.662207413E0,4.334577918E-1,-1.080913544E-1,4.069433212E-1,6.042948493E-1
7.670207881E0,-1.282166243E-1,-1.675367355E-1,3.124241829E-1,3.769839924E-1
7.678207100E0,-8.057221174E-1,-5.553092957E-1,1.541075706E-1,9.906087460E-1
7.686208663E0,-1.008180737E0,-7.655539513E-1,-3.106594086E-3,1.265903196E0
7.694209795E0,-1.020238757E0,-8.368611336E-1,3.693580627E-3,1.319559518E0
7.702208741E0,-1.109237909E0,-8.543820381E-1,7.407426834E-2,1.402092866E0
7.710205967E0,-1.065908074E0,-8.602623940E-1,5.672121048E-2,1.370922574E0
7.718205811E0,-7.220762968E-1,-7.399802208E-1,-7.801628113E-2,1.036846877E0
7.726204639E0,-4.203852415E-1,-6.312975883E-1,-3.673529625E-1,8.427387468E-1
7.734200264E0,-1.236675978E-1,-5.684914589E-1,-7.223687172E-1,9.275196910E-1
7.742198116E0,-1.517772675E-3,-3.761014938E-1,-6.089873314E-1,7.157654693E-1
7.750198741E0,-2.989470959E-2,-3.083639145E-1,-4.636607170E-1,5.576407965E-1
7.758199327E0,1.037479639E-1,-4.670414925E-1,-4.069209099E-1,6.280732621E-1
7.766199209E0,3.635317087E-1,-4.131665230E-1,-3.495368958E-1,6.519493235E-1
7.774196709E0,6.677014232E-1,-1.888790131E-1,-2.757930756E-2,6.944502072E-1
7.782194209E0,9.253166318E-1,1.698298454E-1,2.367596626E-1,9.701073051E-1
7.790193389E0,9.892983437E-1,3.343286514E-1,8.637619019E-2,1.047829999E0
7.798192920E0,1.032643199E0,3.381233215E-1,-2.586059570E-1,1.116940642E0
7.806192334E0,1.030951977E0,2.564721107E-1,-4.265193939E-1,1.144796364E0
7.814190225E0,1.084600449E0,2.113461494E-1,-6.315097809E-1,1.272725395E0
7.822187647E0,1.147631288E0,2.032909393E-1,-7.332248688E-1,1.376954424E0
7.830188038E0,1.105745316E0,8.198833466E-2,-7.485752106E-1,1.337818985E0
7.838187022E0,1.010619402E0,-5.645370483E-2,-7.486176491E-1,1.258954718E0
7.846186045E0,8.711996078E-1,-8.927154541E-2,-6.013045311E-1,1.062320716E0
7.854185928E0,4.279379249E-1,-1.938982010E-1,-4.742588997E-1,6.675693850E-1
7.862187295E0,5.565679073E-2,-3.710045815E-1,-5.107173920E-1,6.336989287E-1
7.870185577E0,-2.358180285E-1,-5.534510612E-1,-3.707065582E-1,7.066410489E-1
7.878181827E0,-4.164873362E-1,-7.199249268E-1,-2.001695633E-1,8.554656366E-1
7.886179092E0,-4.678713083E-1,-1.026778221E0,-2.410230637E-1,1.153806394E0
7.894177491E0,-3.215323687E-1,-1.182905197E0,-4.699287415E-1,1.312814073E0
7.902176631E0,-8.097720146E-2,-1.089632988E0,-7.268576622E-1,1.312318337E0
7.910174405E0,-1.055222750E-1,-9.730353355E-1,-7.928700447E-1,1.259593435E0
7.918172842E0,-2.524473667E-1,-7.616577148E-1,-1.242663860E0,1.479211147E0
7.926172920E0,-3.694851398E-1,-3.971247673E-1,-1.410509586E0,1.511212971E0
7.934174366E0,-5.891265869E-1,-2.331094742E-1,-1.197483063E0,1.354760439E0
7.942171983E0,-8.331879377E-1,-4.469461441E-1,-7.984428406E-1,1.237527359E0
7.950168663E0,-9.821758270E-1,-7.761149406E-1,-2.142987251E-1,1.270018779E0
7.958164834E0,-1.079019308E0,-9.244275093E-1,5.120797157E-1,1.510322655E0
7.966161553E0,-1.198789477E0,-8.866882324E-1,9.893693924E-1,1.789459144E0
7.974161163E0,-1.293823361E0,-7.463235855E-1,1.188576221E0,1.908845520E0
7.982158545E0,-1.277037859E0,-7.155880928E-1,1.034655571E0,1.792597044E0
7.990158858E0,-1.120395064E0,-6.832618713E-1,5.768284798E-1,1.433479327E0
7.998157374E0,-9.553244114E-1,-5.394830704E-1,5.037398338E-1,1.207245018E0
8.006156749E0,-8.594897985E-1,-3.748183250E-1,6.999659538E-1,1.170112741E0
8.014157725E0,-8.432482481E-1,-3.229017258E-1,8.548650742E-1,1.243433725E0
8.022155811E0,-7.501268387E-1,-3.088164330E-1,1.072251797E0,1.344537757E0
8.030154170E0,-7.757372856E-1,-2.257037163E-1,1.382303238E0,1.601084865E0
8.038155030E0,-9.356222153E-1,-2.257928848E-1,1.886938572E0,2.118232407E0
8.046158624E0,-9.418060780E-1,-4.384384155E-1,1.978867531E0,2.234981798E0
8.054159874E0,-9.452518225E-1,-4.733543396E-1,1.834708691E0,2.117479945E0
8.062157999E0,-7.852838039E-1,-4.009141922E-1,1.319633007E0,1.587083525E0
8.070158116E0,-4.530355930E-1,-2.441463470E-1,5.494365692E-1,7.528142074E-1
8.078158702E0,-2.064189911E-1,-7.753276825E-2,-2.070093155E-1,3.024450144E-1
8.086158467E0,1.138552427E-1,-2.311325073E-2,-6.507120132E-1,6.610017873E-1
8.094159561E0,5.881704688E-1,-1.741218567E-2,-1.001448631E0,1.161527893E0
8.102159717E0,8.685673475E-1,-6.134176254E-2,-9.766678810E-1,1.308454126E0
8.110161983E0,8.678140640E-1,-2.231845856E-1,-9.651565552E-1,1.316981315E0
8.118162374E0,8.348124027E-1,-3.616437912E-1,-1.250537872E0,1.546461428E0
8.126162491E0,8.595598936E-1,-3.170785904E-1,-1.490878582E0,1.749885993E0
8.134162803E0,7.791369557E-1,-2.578034401E-1,-1.151389122E0,1.413935614E0
8.142160694E0,5.741668940E-1,-3.579068184E-1,-7.079544067E-1,9.792672540E-1
8.150159288E0,3.224941492E-1,-5.350742340E-1,-3.227162361E-1,7.031732939E-1
8.158156592E0,-2.338557243E-1,-8.099079132E-1,-7.875585556E-2,8.466651123E-1
8.166150069E0,-6.532524824E-1,-1.158498764E0,-3.584499359E-1,1.377441305E0
8.174144170E0,-7.573261261E-1,-1.384909630E0,-7.545404434E-1,1.749528172E0
8.182137217E0,-5.646077394E-1,-1.212960243E0,-9.056882858E-1,1.615650247E0
8.190133545E0,-1.635899544E-1,-7.752385139E-1,-9.450497627E-1,1.233237804E0
8.198130616E0,1.366652250E-1,-4.349904060E-1,-9.729609489E-1,1.074498509E0
8.206129561E0,3.628165722E-1,-2.441082001E-1,-1.147336006E0,1.227845507E0
8.214130928E0,4.881919622E-1,-9.079837799E-2,-1.552803516E0,1.630268229E0
8.222130459E0,5.816048384E-1,-5.510377884E-2,-1.812771797E0,1.904584522E0
8.230131905E0,6.770713925E-1,-3.035354614E-2,-1.609586239E0,1.746457806E0
8.238132608E0,6.779375672E-1,1.290726662E-1,-1.074918747E0,1.277383815E0
8.246131631E0,7.734782696E-1,3.825278282E-1,-4.070587158E-1,9.540927476E-1
8.254132217E0,7.955982685E-1,4.459724426E-1,-4.356098175E-2,9.131076517E-1
8.262133155E0,5.827899575E-1,4.566154480E-1,3.103408813E-1,8.027784654E-1
8.270135889E0,1.824326515E-1,5.105023384E-1,5.687117577E-1,7.857018348E-1
8.278138350E0,-2.076923847E-2,3.831524849E-1,7.040066719E-1,8.017871177E-1
8.286140264E0,-1.150507927E-1,2.425942421E-1,6.681895256E-1,7.201151945E-1
8.294140655E0,-2.704118490E-1,9.335279465E-2,4.074425697E-1,4.978421035E-1
8.302141788E0,-4.574323893E-1,3.217411041E-2,1.575541496E-1,4.848740808E-1
8.310142881E0,-4.786783457E-1,5.499887466E-2,-1.401710510E-2,4.820314451E-1
8.318141163E0,-2.673065662E-1,1.411509514E-1,1.931147575E-1,3.587055910E-1
8.326140967E0,-1.588168144E-1,1.565775871E-1,2.904753685E-1,3.662175051E-1
8.334140499E0,-2.079316378E-1,1.188073158E-1,2.005181313E-1,3.123431850E-1
8.342138233E0,-3.138087988E-1,6.570196152E-2,2.100205421E-1,3.832771035E-1
8.350134600E0,-4.712799788E-1,-7.871150970E-3,3.857126236E-1,6.090492602E-1
8.358131241E0,-6.269625425E-1,-4.411602020E-2,6.223535538E-1,8.845067546E-1
8.366131084E0,-8.729450703E-1,-1.752133369E-1,8.164873123E-1,1.208049809E0
8.374129288E0,-9.098851681E-1,-3.076024055E-1,6.931343079E-1,1.184459973E0
8.382127686E0,-1.013410926E0,-2.994985580E-1,5.757861137E-1,1.203424588E0
8.390127217E0,-1.266698241E0,-2.117285728E-1,3.223743439E-1,1.324114285E0
8.398125694E0,-1.276005149E0,-1.023969650E-1,-4.020376205E-1,1.341755763E0
8.406120577E0,-1.062729716E0,-1.268563271E-1,-9.391217232E-1,1.423880820E0
8.414115342E0,-9.445759058E-1,-1.819415092E-1,-1.071008205E0,1.439578039E0
8.422109874E0,-8.120523691E-1,-1.939730644E-1,-1.006712437E0,1.307870227E0
8.430107178E0,-6.706678867E-1,-2.829856873E-1,-1.086372375E0,1.307700750E0
8.438105264E0,-6.065878868E-1,-3.247246742E-1,-1.185595989E0,1.370778183E0
8.446108233E0,-5.414392948E-1,-2.770729065E-1,-1.200285435E0,1.345589473E0
8.454112413E0,-4.912391901E-1,-8.844423294E-2,-1.079333782E0,1.189159257E0
8.462114561E0,-4.016758204E-1,1.087622643E-1,-8.828535080E-1,9.760138377E-1
8.470115655E0,-2.767384052E-1,1.804857254E-1,-5.967216492E-1,6.820820835E-1
8.478118155E0,-1.844041348E-1,1.311526299E-1,-3.933491707E-1,4.537945210E-1
8.486120459E0,5.410254002E-2,1.076755524E-1,-2.205734253E-1,2.513438787E-1
8.494121670E0,3.361355066E-1,1.648964882E-1,2.529001236E-2,3.752565994E-1
8.502122881E0,5.406167507E-1,5.309557915E-1,6.620721817E-1,1.006240576E0
8.510122608E0,4.418462515E-1,9.017744064E-1,9.735441208E-1,1.398646969E0
8.518123272E0,3.884083033E-1,1.054179668E0,9.470982552E-1,1.469404944E0
8.526122999E0,2.918368578E-1,8.250455856E-1,8.069615364E-1,1.190401567E0
8.534124874E0,1.605267525E-1,4.160804749E-1,5.252265930E-1,6.890245089E-1
8.542125577E0,1.097517014E-1,1.980414391E-1,4.107589722E-1,4.690296161E-1
8.550126397E0,1.806749105E-1,7.411193848E-2,3.242912292E-1,3.785509267E-1
8.558125694E0,3.069976568E-1,4.028272629E-2,1.657848358E-1,3.512191212E-1
8.566124834E0,3.653165102E-1,-8.568286896E-3,-1.367001534E-1,3.901493305E-1
8.574124639E0,4.511069059E-1,-1.123061180E-1,-3.460111618E-1,5.795117159E-1
8.582123780E0,5.058754683E-1,-2.789874077E-1,-1.877379417E-1,6.074450574E-1
8.590124405E0,4.252505302E-1,-3.129377365E-1,4.187612534E-1,6.738909613E-1
8.598126436E0,3.203190565E-1,-2.803406715E-1,6.945867538E-1,8.146446763E-1
8.606126788E0,1.456145048E-1,-3.092951775E-1,6.124353409E-1,7.013872950E-1
8.614126475E0,-4.497337341E-2,-4.665431976E-1,4.308853149E-1,6.366689204E-1
8.622125459E0,-3.504905701E-1,-6.903634071E-1,2.496948242E-1,8.135064713E-1
8.630126202E0,-6.831130981E-1,-8.527078629E-1,3.029012680E-2,1.093010382E0
8.638125733E0,-1.028470039E0,-1.015642643E0,-6.435394287E-2,1.446866279E0
8.646124874E0,-1.207131386E0,-1.215490341E0,-2.837133408E-2,1.713297372E0
8.654125772E0,-1.195366025E0,-1.573988914E0,-1.133213043E-1,1.979692591E0
8.662126670E0,-1.087253332E0,-1.762548923E0,-3.401837349E-1,2.098671839E0
8.670125030E0,-1.053151608E0,-1.694702148E0,-4.889950752E-1,2.054327107E0
8.678125616E0,-9.635416269E-1,-1.606407642E0,-5.176815987E-1,1.943438246E0
8.686127647E0,-8.215764761E-1,-1.532030582E0,-3.124294281E-1,1.766272278E0
8.694127725E0,-6.766532660E-1,-1.453481674E0,-2.691555023E-2,1.603494018E0
8.702129170E0,-5.227228403E-1,-1.246169567E0,1.289305687E-1,1.357498011E0
8.710130108E0,-3.744660616E-1,-1.063611031E0,2.173099518E-1,1.148353983E0
8.718129288E0,-2.146177292E-1,-9.152832031E-1,1.955976486E-1,9.602408821E-1
8.726129209E0,-9.328770638E-2,-8.162870407E-1,3.500652313E-2,8.223457823E-1
8.734132217E0,-8.006036282E-2,-9.303150177E-1,-3.412327766E-1,9.941506434E-1
8.742134092E0,-2.460696697E-1,-1.260900974E0,-6.556115150E-1,1.442306489E0
8.750134288E0,-4.203641415E-1,-1.546597958E0,-7.944335938E-1,1.788797358E0
8.758135186E0,-4.485930204E-1,-1.772339821E0,-9.153952599E-1,2.044595955E0
8.766132881E0,-3.317859173E-1,-1.792457104E0,-1.036936760E0,2.097193889E0
8.774131045E0,-5.611264706E-2,-1.648171425E0,-1.158442974E0,2.015343097E0
8.782130420E0,2.462133169E-1,-1.536124706E0,-1.332212925E0,2.048192224E0
8.790131631E0,5.925775766E-1,-1.389917374E0,-1.339141846E0,2.018989691E0
8.798131006E0,8.984892368E-1,-1.259393215E0,-1.213556290E0,1.966233213E0
8.806130850E0,1.141889334E0,-1.142492294E0,-1.062375546E0,1.933349863E0
8.814130655E0,1.145052910E0,-1.144676208E0,-9.695963860E-1,1.887206120E0
8.822130616E0,1.106905580E0,-1.111255646E0,-1.055540085E0,1.890580319E0
8.830132530E0,9.801663160E-1,-1.076447964E0,-1.287330627E0,1.943369849E0
8.838132530E0,7.360184193E-1,-1.122749805E0,-1.303005219E0,1.870858851E0
8.846132334E0,4.259141684E-1,-1.219656944E0,-1.144926071E0,1.726215991E0
8.854133506E0,1.618350744E-1,-1.366746426E0,-9.894971848E-1,1.695078483E0
8.862134717E0,3.712511063E-2,-1.447605133E0,-8.349819183E-1,1.671566241E0
8.870135538E0,2.323877811E-2,-1.405720711E0,-7.684001923E-1,1.602195248E0
8.878138350E0,-8.348584175E-2,-1.207315445E0,-6.415500641E-1,1.369732439E0
8.886139795E0,-2.215626240E-1,-1.038786411E0,-5.212054253E-1,1.183140862E0
8.894141475E0,-5.365411043E-1,-9.153985977E-1,-4.890155792E-1,1.168318101E0
8.902143819E0,-7.936279774E-1,-9.035143852E-1,-3.051719666E-1,1.240690751E0
8.910143702E0,-8.634026051E-1,-8.901653290E-1,1.483092308E-1,1.248941151E0
8.918142608E0,-8.717306852E-1,-7.396273613E-1,4.937887192E-1,1.245307320E0
8.926140225E0,-8.951586485E-1,-5.226163864E-1,9.762697220E-1,1.423916944E0
8.934139522E0,-7.306921482E-1,-3.582339287E-1,1.562310696E0,1.761549679E0
8.942139913E0,-2.250227928E-1,-3.385834694E-1,2.342889786E0,2.377899613E0
8.950141553E0,2.811696529E-1,-5.965156555E-1,2.706289768E0,2.785478704E0
8.958144366E0,-2.103837729E-1,-6.328210831E-1,3.678934574E0,3.738887997E0
8.966145538E0,-2.239555120E-1,-8.199911118E-1,4.196053982E0,4.281286082E0
8.974151319E0,1.760504246E-1,-1.172602177E0,4.078194618E0,4.247076755E0
8.982156124E0,3.669052124E-1,-1.633897781E0,3.349375010E0,3.744670126E0
8.990160147E0,4.594651461E-1,-2.042475224E0,1.971776485E0,2.875885215E0
8.998164717E0,6.677976847E-1,-2.081081867E0,-8.387422562E-2,2.187210637E0
9.006169678E0,1.105376244E0,-1.903219700E0,-1.489513397E0,2.657583870E0
9.014174209E0,1.687303424E0,-1.905385494E0,-2.677505493E0,3.694119975E0
9.022177374E0,1.756687760E0,-2.661714077E0,-3.415509224E0,4.672940934E0
9.030182139E0,1.583566308E0,-3.161279917E0,-3.274196625E0,4.818893701E0
9.038188077E0,1.522207141E0,-3.805261374E0,-2.305714130E0,4.702493631E0
9.046193155E0,1.445757270E0,-4.720138073E0,-5.027012825E-1,4.962119113E0
9.054197413E0,1.129062772E0,-5.500683784E0,1.170183659E0,5.735994651E0
9.062203389E0,-3.394663334E-2,-6.387151241E0,2.764541149E0,6.959852090E0
9.070209444E0,-1.095674038E0,-6.694035053E0,3.326209784E0,7.554752042E0
9.078216788E0,-1.739616275E0,-7.139639854E0,3.003167152E0,7.938497023E0
9.086226553E0,-2.370419502E0,-7.658169270E0,2.409460068E0,8.370898578E0
9.094233350E0,-3.469528198E0,-8.256979942E0,1.503863811E0,9.081682116E0
9.102235928E0,-4.334673882E0,-8.459455490E0,5.019440651E-1,9.518599303E0
9.110239327E0,-4.727473259E0,-8.150359154E0,-5.347404480E-1,9.437335699E0
9.118243233E0,-4.724525452E0,-7.894751549E0,-1.162191868E0,9.273560950E0
9.126250186E0,-4.781987190E0,-8.037017822E0,-1.672738075E0,9.500479442E0
9.134255342E0,-4.858845711E0,-8.128727913E0,-2.096957207E0,9.699578787E0
9.142257334E0,-4.597222328E0,-8.232909203E0,-2.489974022E0,9.752703097E0
9.150262139E0,-4.045397282E0,-8.341614723E0,-2.107861996E0,9.507410665E0
9.158263741E0,-3.722112179E0,-8.560879707E0,-1.268040180E0,9.420759329E0
9.166265694E0,-3.005207539E0,-8.818955421E0,-5.492200851E-1,9.333107188E0
9.174266905E0,-2.004205704E0,-8.502264023E0,-7.486867905E-1,8.767318058E0
9.182268155E0,-5.218126774E-1,-7.695359230E0,-7.583646774E-1,7.750223167E0
9.190271280E0,5.757400393E-1,-7.419639111E0,-9.584808350E-2,7.442560579E0
9.198274170E0,1.517127514E0,-7.305040359E0,8.195400238E-1,7.505793522E0
9.206275733E0,1.418656111E0,-6.964838028E0,1.117127180E0,7.195104381E0
9.214276241E0,5.682100654E-1,-6.630159378E0,1.017956972E0,6.731872879E0
9.222279444E0,8.770930767E-2,-6.524911880E0,1.292375445E0,6.652247910E0
9.230280889E0,8.851819038E-1,-6.142574310E0,1.689713717E0,6.431943610E0
9.238285811E0,1.685991526E0,-5.612317085E0,2.340262651E0,6.310110916E0
9.246290342E0,1.837135315E0,-5.135145664E0,2.903926849E0,6.178800717E0
9.254292022E0,1.491485119E0,-5.143647671E0,2.949488640E0,6.114010342E0
9.262293663E0,1.434010386E0,-5.114959240E0,2.247485638E0,5.768048674E0
9.270293194E0,2.058062553E0,-5.268959522E0,2.077310085E0,6.026008058E0
9.278291866E0,2.560847521E0,-5.328677654E0,3.320196629E0,6.780593722E0
9.286291670E0,1.717912674E0,-5.845730782E0,4.571743488E0,7.617390029E0
9.294291006E0,5.562081337E-1,-6.480797291E0,4.344465733E0,7.822051107E0
9.302291202E0,-1.468817294E-1,-6.477709293E0,2.697124243E0,7.018316829E0
9.310293467E0,-6.213479638E-1,-5.874828339E0,8.676911592E-1,5.970977244E0
9.318297413E0,-1.595273018E0,-5.007253647E0,-7.160568237E-1,5.303793214E0
9.326300420E0,-1.657217264E0,-4.347773075E0,-9.364374280E-1,4.746200041E0
9.334299405E0,6.327635050E-2,-3.732048988E0,9.119355679E-2,3.733699213E0
9.342302374E0,1.801728010E0,-3.176229954E0,1.455295205E0,3.930972485E0
9.350304053E0,3.087800980E0,-2.565706253E0,3.076409578E0,5.057831488E0
9.358309092E0,3.344118834E0,-2.054138660E0,3.833973408E0,5.486526087E0
9.366311163E0,2.660214901E0,-1.353293419E0,3.585547924E0,4.665222429E0
9.374313663E0,2.081403971E0,-5.109691620E-1,2.481656551E0,3.279016806E0
9.382316670E0,3.020085812E0,5.913200378E-1,1.254484415E0,3.323297887E0
9.390321280E0,4.950092316E0,1.334079742E0,1.687704802E0,5.397363263E0
9.398325342E0,7.255942345E0,2.576275826E0,4.216812134E0,8.778804076E0
9.406329483E0,7.799176693E0,2.893009186E0,6.125493050E0,1.033045615E1
9.414332530E0,6.942368031E0,2.096543312E0,7.067431450E0,1.012623104E1
9.422336983E0,4.856413841E0,7.083883286E-1,7.021999836E0,8.567091170E0
9.430338936E0,3.000278473E0,-2.991666794E-1,6.136003971E0,6.836791378E0
9.438341670E0,1.162095308E0,-1.228976250E0,4.780712605E0,5.071100584E0
9.446342491E0,-4.386352301E-1,-1.810072422E0,3.811323166E0,4.242045180E0
9.454343545E0,-1.844060540E0,-2.281908035E0,3.309199810E0,4.422495556E0
9.462352686E0,-2.222938061E0,-2.416944027E0,2.889620304E0,4.374125919E0
9.470359991E0,-2.165091753E0,-1.710016727E0,3.337954044E0,4.330556166E0
9.478365303E0,-1.892658353E0,-8.621926308E-1,4.868196964E0,5.293852421E0
9.486370225E0,-6.143996716E-1,-5.144214630E-1,7.034234524E0,7.079729637E0
9.494375186E0,8.480703831E-1,-2.631525993E-1,8.722986221E0,8.768064854E0
9.502383272E0,2.599162579E0,4.634590149E-1,9.799036026E0,1.014847513E1
9.510389639E0,4.404682636E0,1.311511993E0,1.020028877E1,1.118781408E1
9.518393897E0,5.852491856E0,1.754440308E0,1.067046738E1,1.229587719E1
9.526397803E0,5.578045845E0,1.410080910E0,1.121684456E1,1.260636845E1
9.534399249E0,3.596231699E0,5.781664848E-1,1.180973053E1,1.235867688E1
9.542401084E0,1.484517097E0,-6.786966324E-2,1.140278530E1,1.149921345E1
9.550403350E0,-4.463028908E-1,-5.713195801E-1,1.007473278E1,1.010078378E1
9.558404288E0,-1.807679176E0,-4.261798859E-1,9.414258003E0,9.595706699E0
9.566404327E0,-2.617829084E0,1.280798912E-1,9.945307732E0,1.028487139E1
9.574403624E0,-2.080802202E0,9.888219833E-1,1.122282600E1,1.145684644E1
9.582402452E0,-8.035764694E-1,1.646843910E0,1.236709404E1,1.250211362E1
9.590404795E0,3.977522850E-1,2.449042320E0,1.301194763E1,1.324638805E1
9.598405342E0,1.356648207E0,3.500256777E0,1.258005905E1,1.312822066E1
9.606406592E0,2.845549107E0,4.094432354E0,1.121435261E1,1.227286562E1
9.614407452E0,4.033292294E0,4.066157341E0,1.018003082E1,1.168050126E1
9.622407803E0,4.864517212E0,4.148809433E0,9.173690796E0,1.118180443E1
9.630408858E0,4.686323166E0,4.237334251E0,8.739973068E0,1.078442189E1
9.638409522E0,3.573250771E0,4.246208191E0,8.204147339E0,9.904869440E0
9.646409600E0,2.227055073E0,4.159009933E0,7.338781357E0,8.724382484E0
9.654412295E0,7.537791729E-1,3.792917252E0,6.829766273E0,7.848573862E0
9.662417061E0,-2.344942093E-1,3.615200520E0,6.856909752E0,7.755119192E0
9.670421045E0,-4.894609451E-1,4.166435242E0,8.118275642E0,9.138115454E0
9.678426163E0,-2.099275589E-2,5.202542305E0,1.040834713E1,1.163617536E1
9.686427374E0,9.136657715E-1,6.194054604E0,1.284181976E1,1.428682723E1
9.694428467E0,2.070890903E0,6.959717751E0,1.430886936E1,1.604587183E1
9.702429053E0,3.415346622E0,7.650704384E0,1.602057648E1,1.807917976E1
9.710431319E0,4.702012539E0,8.100004196E0,1.793362617E1,2.023200281E1
9.718433819E0,5.913898945E0,8.269842148E0,1.818713760E1,2.083594164E1
9.726434288E0,7.390111923E0,8.538579941E0,1.698334122E1,2.039497439E1
9.734435772E0,9.309736252E0,7.661594391E0,1.499895859E1,1.924421930E1
9.742438858E0,1.087000084E1,6.295502186E0,1.464418602E1,1.929358573E1
9.750441436E0,1.065839958E1,4.742510796E0,1.409087181E1,1.829332006E1
9.758445928E0,8.667570114E0,3.120773077E0,1.194575024E1,1.508532217E1
9.766451319E0,6.596457005E0,1.767905712E0,8.609969139E0,1.098955432E1
9.774454444E0,5.070915699E0,2.811007500E-1,4.861412048E0,7.030400470E0
9.782454327E0,4.340777874E0,-9.900975227E-1,2.486705780E0,5.099642271E0
9.790456241E0,3.438103199E0,-2.235398769E0,8.838376999E-1,4.195084069E0
9.798458663E0,2.689081430E0,-3.209233522E0,-3.761835098E-1,4.203790287E0
9.806461827E0,2.303101301E0,-3.913109541E0,-2.163578987E0,5.029689445E0
9.814461670E0,2.349892616E0,-4.432053566E0,-3.583470821E0,6.164929622E0
9.822464366E0,2.235834360E0,-5.106962204E0,-4.916076660E0,7.432888265E0
9.830466358E0,1.740792632E0,-5.894681454E0,-6.070640564E0,8.638883336E0
9.838468389E0,9.451469183E-1,-6.698809624E0,-7.186992645E0,9.870168000E0
9.846469444E0,-1.688810885E-1,-7.341534138E0,-8.322433472E0,1.109907848E1
9.854471749E0,-9.958752394E-1,-7.874827385E0,-8.949538231E0,1.196239560E1
9.862475108E0,-1.702853680E0,-8.435477257E0,-9.527812958E0,1.283885536E1
9.870475850E0,-2.080888510E0,-8.854143143E0,-9.480991364E0,1.313830830E1
9.878478467E0,-2.261119604E0,-9.079560280E0,-8.839632034E0,1.287206942E1
9.886483545E0,-2.264685869E0,-9.191515923E0,-8.575075150E0,1.277281022E1
9.894489639E0,-1.813842177E0,-9.230835915E0,-9.347463608E0,1.326172806E1
9.902494209E0,-1.289355636E0,-9.301502228E0,-1.043562222E1,1.403861078E1
9.910502647E0,-8.357880712E-1,-9.333183289E0,-1.129899883E1,1.467904038E1
9.918506124E0,-6.618341208E-1,-9.436002731E0,-1.107637024E1,1.456578696E1
9.926511592E0,-1.107528687E0,-9.592693329E0,-1.017377949E1,1.402683764E1
9.934517999E0,-2.020635366E0,-9.695893288E0,-9.546091080E0,1.375576857E1
9.942523624E0,-3.292956352E0,-9.766971588E0,-9.246954918E0,1.384714667E1
9.950531202E0,-4.199409962E0,-9.984973907E0,-9.117467880E0,1.415849457E1
9.958535928E0,-4.836054325E0,-1.012990570E1,-9.250407219E0,1.454553006E1
9.966540850E0,-4.918064594E0,-1.004207230E1,-9.811680794E0,1.487614383E1
9.974545147E0,-4.640190125E0,-9.845100403E0,-1.045127678E1,1.508928602E1
9.982548077E0,-4.078848362E0,-9.561874390E0,-1.084751892E1,1.502448377E1
9.990554522E0,-3.412729025E0,-9.323195457E0,-1.130782604E1,1.504777800E1
9.998559834E0,-2.752087593E0,-9.366112709E0,-1.170838165E1,1.524415476E1
1.000656620E1,-2.317552567E0,-9.385732651E0,-1.167731476E1,1.515990459E1
1.001457136E1,-2.143239737E0,-9.198903084E0,-1.093641472E1,1.445055229E1
1.002257671E1,-2.186416864E0,-8.797810555E0,-1.090880203E1,1.418392932E1
1.003057991E1,-1.853128314E0,-8.665622711E0,-1.132588577E1,1.438063942E1
1.003858230E1,-1.295518398E0,-8.543087006E0,-1.082180882E1,1.384825800E1
1.004658316E1,-8.880768418E-1,-8.252869606E0,-9.427812576E0,1.256113797E1
1.005458753E1,-4.216634333E-1,-8.246156693E0,-8.574281693E0,1.190357958E1
1.006259151E1,1.559488475E-1,-8.627862930E0,-7.830171585E0,1.165229273E1
1.007059417E1,2.743213773E-1,-8.840114594E0,-7.048672199E0,1.130958257E1
1.007859409E1,-1.400618255E-1,-9.046063423E0,-5.685796261E0,1.068546489E1
1.008659382E1,-6.020879745E-1,-9.045096397E0,-3.984431744E0,9.902119727E0
1.009459706E1,-1.764773726E-1,-8.567613602E0,-1.990406513E0,8.797548816E0
1.010260128E1,9.644728899E-1,-7.567552567E0,4.765701294E-2,7.628914142E0
1.011060417E1,2.781408310E0,-5.759656429E0,3.306605339E0,7.200243971E0
1.011860601E1,4.289658546E0,-3.833873272E0,6.211051941E0,8.466222353E0
1.012660776E1,5.678130627E0,-1.993791938E0,8.332305908E0,1.027831190E1
1.013461085E1,6.739570618E0,-1.060203791E0,9.467307091E0,1.166943648E1
1.014261093E1,7.407401085E0,-6.208984852E-1,1.030199146E1,1.270378423E1
1.015061542E1,6.918987751E0,-1.880331039E-1,1.141638374E1,1.335071405E1
1.015862120E1,5.657919407E0,4.550070763E-1,1.226191521E1,1.351198165E1
1.016662886E1,4.254707336E0,6.644263268E-1,1.280885887E1,1.351335867E1
1.017463585E1,3.187808514E0,3.866649866E-1,1.303806210E1,1.342768395E1
1.018264257E1,1.975042820E0,1.069692373E-1,1.355271244E1,1.369628603E1
1.019065316E1,1.137982607E0,3.665322065E-1,1.425119019E1,1.430125071E1
1.019866019E1,6.914610863E-1,1.005568504E0,1.494825935E1,1.499799134E1
1.020666526E1,6.261284351E-1,1.566428423E0,1.537912941E1,1.547137215E1
1.021466909E1,7.694008350E-1,2.231041908E0,1.592235851E1,1.609630474E1
1.022267155E1,1.014949083E0,2.939532280E0,1.627151871E1,1.656602827E1
1.023067417E1,1.696814775E0,3.613245726E0,1.679652596E1,1.726435661E1
1.023868104E1,2.777763605E0,4.159274578E0,1.753137207E1,1.823086784E1
1.024668694E1,4.001567841E0,4.671738148E0,1.815786362E1,1.917148126E1
1.025469327E1,4.704070091E0,4.881111622E0,1.806879616E1,1.929857302E1
1.026270003E1,5.134027004E0,4.733226299E0,1.733665848E1,1.869014156E1
1.027070472E1,5.319356918E0,4.441521168E0,1.641047287E1,1.781365454E1
1.027871179E1,5.457353592E0,4.160501957E0,1.518146324E1,1.666041149E1
1.028671608E1,5.419796944E0,3.918406725E0,1.412475300E1,1.562807594E1
1.029471698E1,5.289153099E0,3.501210451E0,1.253359699E1,1.404722993E1
1.030272128E1,5.001862526E0,2.770535231E0,1.056826305E1,1.201593434E1
1.031072151E1,4.780220032E0,1.923143387E0,8.887818336E0,1.027337816E1
1.031872269E1,4.279908657E0,9.950264692E-1,7.152239799E0,8.394178336E0
1.032672405E1,3.438239098E0,2.960002422E-1,5.792350769E0,6.742435144E0
1.033472480E1,2.444569826E0,-3.861898184E-1,4.184073448E0,4.861227708E0
1.034272519E1,1.641715765E0,-1.134546995E0,3.065028191E0,3.657434257E0
1.035072624E1,7.231652737E-1,-1.986445904E0,2.013738632E0,2.919602476E0
1.035873062E1,-7.130873203E-2,-2.629361391E0,1.230994225E0,2.904130342E0
1.036673253E1,-8.435413837E-1,-3.181591034E0,4.436044693E-1,3.321275131E0
1.037473515E1,-1.385677576E0,-3.497591496E0,-2.578516006E-1,3.770906531E0
1.038273749E1,-1.833572626E0,-3.637598991E0,-1.016261101E0,4.198440380E0
1.039074245E1,-1.814604282E0,-3.564943552E0,-1.583439827E0,4.302196290E0
1.039874378E1,-1.382781148E0,-3.332436085E0,-2.242333412E0,4.247972822E0
1.040674604E1,-6.899451017E-1,-3.181207180E0,-2.782256603E0,4.282178788E0
1.041474909E1,-3.284925222E-2,-3.306281328E0,-3.232604980E0,4.624101021E0
1.042275265E1,1.803895831E-1,-3.370699167E0,-3.537831783E0,4.889826889E0
1.043075628E1,1.766255796E-1,-3.338308334E0,-3.967959404E0,5.188468075E0
1.043875980E1,1.696714759E-2,-3.418527603E0,-4.526818752E0,5.672627863E0
1.044676222E1,-1.551798880E-1,-3.523085117E0,-4.896667480E0,6.034365083E0
1.045476835E1,-2.466903031E-1,-3.582668781E0,-5.289607048E0,6.393458722E0
1.046277327E1,-3.436211944E-1,-3.581336260E0,-5.637355804E0,6.687587412E0
1.047077745E1,-4.844898880E-1,-3.531842709E0,-6.252249718E0,7.197170965E0
1.047878257E1,-6.800079346E-1,-3.561804771E0,-6.723758221E0,7.639226966E0
1.048678429E1,-1.032819986E0,-3.741924763E0,-7.120020866E0,8.109464544E0
1.049478507E1,-1.319121599E0,-3.902575016E0,-7.538654804E0,8.590779348E0
1.050278737E1,-1.331252217E0,-3.866529942E0,-8.628285408E0,9.548277087E0
1.051078940E1,-1.225737929E0,-3.992781639E0,-9.497335434E0,1.037516839E1
1.051879116E1,-1.210073352E0,-4.143882275E0,-1.010583401E1,1.098926380E1
1.052679480E1,-1.332167029E0,-4.229135990E0,-1.017654610E1,1.110055632E1
1.053479612E1,-1.624384284E0,-4.285199165E0,-9.951859474E0,1.095632526E1
1.054279585E1,-1.934936047E0,-4.359883308E0,-9.710298538E0,1.081861625E1
1.055079769E1,-2.314080000E0,-4.482430935E0,-9.693566322E0,1.092759724E1
1.055879905E1,-2.457763195E0,-4.697286606E0,-9.667452812E0,1.102564036E1
1.056680054E1,-2.461252928E0,-4.763677120E0,-9.106418610E0,1.056774553E1
1.057480198E1,-2.650416851E0,-4.739221096E0,-8.680584908E0,1.023901755E1
1.058280503E1,-2.739215851E0,-4.907958031E0,-8.893874168E0,1.052104335E1
1.059080569E1,-2.717517138E0,-5.216883183E0,-9.243803978E0,1.095667292E1
1.059880925E1,-2.836812258E0,-5.441778183E0,-9.490449905E0,1.130172965E1
1.060681257E1,-3.007832766E0,-5.545884132E0,-9.766775131E0,1.162728624E1
1.061481562E1,-2.681863308E0,-5.501535416E0,-1.034965706E1,1.202392132E1
1.062281917E1,-2.004963160E0,-5.609395027E0,-1.106679249E1,1.256817751E1
1.063081980E1,-1.617036819E0,-5.610423565E0,-1.135162735E1,1.276523028E1
1.063881944E1,-1.210040569E0,-5.439676762E0,-1.178315830E1,1.303445822E1
1.064682081E1,-7.619647980E-1,-5.392408371E0,-1.225151443E1,1.340739588E1
1.065482257E1,-4.948996603E-1,-5.478113651E0,-1.218544197E1,1.336935492E1
1.066282358E1,-2.440359890E-1,-5.485672474E0,-1.111241722E1,1.239507856E1
1.067082222E1,-5.719363689E-3,-5.462200165E0,-9.568531036E0,1.101782417E1
1.067882280E1,-2.504634857E-2,-5.471333027E0,-8.074059486E0,9.753284011E0
1.068682261E1,2.360485792E-1,-5.331711769E0,-6.045087337E0,8.063866953E0
1.069482280E1,1.312992096E0,-4.964049339E0,-4.158809185E0,6.607679466E0
1.070282398E1,2.509936810E0,-4.417365074E0,-2.405272961E0,5.621230737E0
1.071082378E1,3.449989557E0,-3.738542557E0,-2.374105453E-1,5.092690071E0
1.071882425E1,3.902670622E0,-3.141687155E0,2.005797386E0,5.396689663E0
1.072682616E1,4.356935978E0,-2.717752457E0,4.773281097E0,7.010940163E0
1.073482765E1,4.544770241E0,-2.318833351E0,7.235195160E0,8.853246504E0
1.074282620E1,4.236422539E0,-1.712706327E0,1.033929443E1,1.130405451E1
1.075082640E1,3.619937897E0,-1.228495240E0,1.255625629E1,1.312527040E1
1.075882679E1,2.878679991E0,-9.025706053E-1,1.407227325E1,1.439202233E1
1.076682663E1,2.395879507E0,-6.715829372E-1,1.448888397E1,1.470098708E1
1.077482737E1,2.362720251E0,-3.752221465E-1,1.358712578E1,1.379613082E1
1.078282718E1,3.169630051E0,-2.146260738E-1,1.192830086E1,1.234410711E1
1.079082710E1,4.222720146E0,-4.155460596E-1,1.022339630E1,1.106896002E1
1.079882956E1,4.390771389E0,-6.085655689E-1,9.097546577E0,1.012000885E1
1.080683444E1,3.456391335E0,-8.765562177E-1,8.180711746E0,8.924070626E0
1.081483702E1,1.919276476E0,-1.186549664E0,7.549553871E0,7.879548588E0
1.082283882E1,-1.016845703E-1,-1.478153348E0,7.147094727E0,7.299057480E0
1.083084245E1,-1.455888271E0,-1.449046254E0,7.317077637E0,7.599932292E0
1.083884562E1,-1.982775450E0,-1.151996255E0,7.871550560E0,8.198768327E0
1.084684999E1,-1.464879394E0,-5.970902443E-1,8.369975090E0,8.518149529E0
1.085485417E1,-3.843984604E-1,-8.704829216E-2,8.472886086E0,8.482047996E0
1.086285351E1,1.025941610E0,5.913428664E-1,8.417269707E0,8.500157169E0
1.087085843E1,1.960391760E0,1.094855309E0,8.212135315E0,8.513578004E0
1.087886112E1,2.834787369E0,1.428469419E0,7.920086861E0,8.532544766E0
1.088686354E1,3.359735250E0,1.746651173E0,7.886615753E0,8.748560985E0
1.089486452E1,3.123277426E0,1.977034807E0,7.550758362E0,8.406989969E0
1.090286440E1,2.335170269E0,1.836307883E0,6.855600357E0,7.471566307E0
1.091086694E1,1.211631060E0,1.450079203E0,5.940631866E0,6.233930260E0
1.091886960E1,3.337507248E-1,1.152933836E0,5.242095947E0,5.377751937E0
1.092687335E1,-2.506709099E-1,9.940150976E-1,4.496788025E0,4.612158330E0
1.093487757E1,-1.470303535E-1,1.019217491E0,3.814227104E0,3.950791139E0
1.094288272E1,3.417432308E-1,1.110525608E0,3.060173035E0,3.273333861E0
1.095088480E1,5.673139095E-1,1.139471173E0,2.473150253E0,2.781494527E0
1.095888636E1,5.690860748E-1,1.047046781E0,1.687176704E0,2.065606728E0
1.096688960E1,4.380848408E-1,8.655143976E-1,1.070500374E0,1.444646860E0
1.097489464E1,1.543743610E-1,6.666299105E-1,5.939130783E-1,9.060682234E-1
1.098289347E1,-4.677391052E-2,4.740928411E-1,4.001417160E-1,6.221456531E-1
1.099089378E1,-1.259970665E-1,3.722603321E-1,2.968893051E-1,4.925406330E-1
1.099889405E1,-3.222975731E-1,2.717726231E-1,7.864379883E-2,4.288600370E-1
1.100689366E1,-5.169093609E-1,1.042267084E-1,-1.918468475E-1,5.611271754E-1
1.101489296E1,-7.993621826E-1,-1.552882195E-1,-4.848518372E-1,9.477212850E-1
1.102289300E1,-1.045246720E0,-3.917080164E-1,-7.237844467E-1,1.330353262E0
1.103089175E1,-8.428163528E-1,-4.440667629E-1,-1.199328423E0,1.531640741E0
1.103889362E1,-1.018140316E-1,-3.655880690E-1,-1.508018494E0,1.555037141E0
1.104689566E1,8.268013000E-1,-1.409660578E-1,-1.919038296E0,2.094320845E0
1.105489835E1,1.227437019E0,-8.536958694E-2,-2.446537971E0,2.738510115E0
1.106290276E1,1.036154151E0,-1.621994972E-1,-2.915738583E0,3.098621562E0
1.107090327E1,4.342768192E-1,-3.301531076E-1,-3.060087681E0,3.108333001E0
1.107890566E1,-4.087350368E-1,-6.078525782E-1,-2.895669460E0,2.986879762E0
1.108690687E1,-1.115552664E0,-8.414245844E-1,-2.542301178E0,2.900990927E0
1.109491190E1,-1.734011054E0,-1.016929388E0,-2.354357719E0,3.095793919E0
1.110291409E1,-1.926666737E0,-1.052419186E0,-2.515956879E0,3.339112138E0
1.111091886E1,-1.806847215E0,-1.027568936E0,-2.854557514E0,3.531160344E0
1.111892148E1,-1.381754518E0,-8.843221664E-1,-3.274147987E0,3.662146404E0
1.112692632E1,-4.392275810E-1,-6.071851254E-1,-3.578143120E0,3.655776638E0
1.113493144E1,5.595998764E-1,-2.343070507E-1,-3.421618462E0,3.474985570E0
1.114293624E1,8.578413725E-1,3.434181213E-2,-3.140582561E0,3.255814799E0
1.115094077E1,5.354542732E-1,6.096100807E-2,-2.951415539E0,3.000213527E0
1.115894483E1,-9.481036663E-2,-1.247143745E-1,-2.849874973E0,2.854177648E0
1.116694792E1,-9.193040729E-1,-3.794193268E-1,-2.782953739E0,2.955319021E0
1.117495026E1,-1.545012951E0,-5.797270536E-1,-2.597584724E0,3.077433163E0
1.118295495E1,-2.052470684E0,-7.157523632E-1,-2.101225376E0,3.023257421E0
1.119095874E1,-2.250644922E0,-7.387046814E-1,-1.825535297E0,2.990596311E0
1.119896257E1,-2.349350452E0,-6.784152985E-1,-1.756018162E0,3.010530626E0
1.120696585E1,-2.215838909E0,-5.716739893E-1,-1.706071854E0,2.854371103E0
1.121497019E1,-1.438084841E0,-4.112529755E-1,-1.714655876E0,2.275359706E0
1.122297144E1,-4.877611399E-1,-2.640547752E-1,-1.886336803E0,1.966189815E0
1.123097175E1,3.778376579E-1,-4.995584488E-2,-2.068991184E0,2.103801655E0
1.123897394E1,9.293724298E-1,9.384441376E-2,-2.200840473E0,2.390865675E0
1.124697788E1,1.317449689E0,7.607221603E-2,-2.108891010E0,2.487746361E0
1.125498038E1,1.519999027E0,7.270574570E-3,-1.792637348E0,2.350318822E0
1.126298003E1,1.453499913E0,6.952905655E-2,-1.256175995E0,1.922361677E0
1.127098093E1,1.023708224E0,7.243061066E-2,-8.256273270E-1,1.317150411E0
1.127897784E1,5.453267097E-1,-1.374526024E-1,-4.240465164E-1,7.043364866E-1
1.128697394E1,-6.841635704E-2,-4.365683794E-1,1.931333542E-1,4.822584787E-1
1.129497308E1,-4.558897018E-1,-5.343582630E-1,7.058629990E-1,9.957995515E-1
1.130297448E1,-3.045163155E-1,-4.039776325E-1,8.940334320E-1,1.027240912E0
1.131097569E1,3.037666082E-1,-2.031209469E-1,9.223241806E-1,9.920756854E-1
1.131897882E1,8.816417456E-1,6.867945194E-2,9.627742767E-1,1.307265598E0
1.132698081E1,9.737613201E-1,2.421897650E-1,1.164214134E0,1.536965042E0
1.133498354E1,7.212501764E-1,2.441426516E-1,1.386671066E0,1.581981067E0
1.134298437E1,3.175340891E-1,1.352061033E-1,1.561141968E0,1.598834836E0
1.135098440E1,-1.857714653E-1,4.609775543E-2,1.706632614E0,1.717332501E0
1.135898577E1,-5.856113434E-1,5.358922482E-2,1.746036530E0,1.842404954E0
1.136698730E1,-7.237018347E-1,1.100525856E-1,1.449350357E0,1.623721766E0
1.137498823E1,-5.993911028E-1,2.168818712E-1,1.166687012E0,1.329460802E0
1.138299093E1,-2.447644472E-1,5.006736517E-1,1.085084915E0,1.219833191E0
1.139099257E1,2.318084240E-1,8.997756243E-1,9.311275482E-1,1.315420021E0
1.139899331E1,7.962976694E-1,1.212512493E0,7.672739029E-1,1.641031921E0
1.140699390E1,1.308470488E0,1.390722871E0,7.183561325E-1,2.040157017E0
1.141499468E1,1.429453015E0,1.475375772E0,8.228416443E-1,2.212947799E0
1.142299562E1,1.254542828E0,1.424757838E0,9.034023285E-1,2.102367325E0
1.143099812E1,8.896219730E-1,1.208256841E0,9.411172867E-1,1.771161651E0
1.143899780E1,3.426746130E-1,8.790946007E-1,1.051136971E0,1.412487925E0
1.144699878E1,-1.475186348E-1,6.278651953E-1,1.252923012E0,1.409181509E0
1.145499644E1,-5.087201595E-1,3.227474689E-1,1.312236786E0,1.443927807E0
1.146299448E1,-5.258185863E-1,-2.133071423E-2,1.261693954E0,1.367044922E0
1.147099335E1,-4.967803955E-1,-3.907197714E-1,1.393747330E0,1.530354312E0
1.147899237E1,-5.774570704E-1,-5.532646179E-1,1.650057793E0,1.833643674E0
1.148699358E1,-5.930770636E-1,-6.663804054E-1,1.838484764E0,2.043484640E0
1.149499558E1,-6.206037998E-1,-7.943729162E-1,1.988217354E0,2.229167031E0
1.150299722E1,-6.954234838E-1,-9.854714870E-1,2.109290123E0,2.429788612E0
1.151100003E1,-8.510601521E-1,-1.078517914E0,2.163723946E0,2.563046154E0
1.151900038E1,-9.351811409E-1,-1.117877722E0,2.185483932E0,2.626890631E0
1.152699964E1,-9.479023814E-1,-1.155363083E0,2.217540741E0,2.674111014E0
1.153499894E1,-1.001154661E0,-1.125885725E0,1.986777306E0,2.493434054E0
1.154300022E1,-9.766107202E-1,-1.096796155E0,1.564414978E0,2.145722379E0
1.155100148E1,-9.550926089E-1,-1.085364819E0,1.395272255E0,2.009229541E0
1.155900249E1,-1.046606541E0,-9.572309256E-1,1.306874275E0,1.928625590E0
1.156700718E1,-1.136621714E0,-6.300553083E-1,1.346975327E0,1.871689382E0
1.157500753E1,-1.066353202E0,-1.198763847E-1,1.462059975E0,1.813587293E0
1.158300675E1,-8.802804351E-1,2.972393036E-1,1.360970497E0,1.647873036E0
1.159100437E1,-6.668801308E-1,8.076872826E-1,1.215537071E0,1.604561693E0
1.159900175E1,-5.376670361E-1,1.465487719E0,1.781079292E0,2.368329272E0
1.160700175E1,3.480279446E-2,2.627702951E0,3.506008148E0,4.381566748E0
1.161500272E1,1.105466127E0,3.783658743E0,5.627600670E0,6.870809133E0
1.162300726E1,2.582319736E0,4.916413784E0,8.379880905E0,1.005295497E1
1.163101022E1,3.645119667E0,5.593516350E0,1.033964920E1,1.230782955E1
1.163901265E1,4.285741329E0,5.699476719E0,1.169062996E1,1.369388340E1
1.164701351E1,4.345221043E0,5.258115768E0,1.229673576E1,1.406195000E1
1.165501429E1,4.051193237E0,4.280771255E0,1.274205589E1,1.403912952E1
1.166301604E1,3.890479803E0,3.406696320E0,1.309788227E1,1.408175887E1
1.167101913E1,3.636424065E0,2.691462994E0,1.335734940E1,1.410270669E1
1.167902058E1,2.931978703E0,1.913732052E0,1.311137867E1,1.357081870E1
1.168702398E1,2.003720760E0,9.774210453E-1,1.206673241E1,1.227095268E1
1.169502675E1,1.071268201E0,-3.153285980E-1,1.013054276E1,1.019190582E1
1.170303015E1,5.173809528E-1,-1.347920179E0,8.299936295E0,8.424577993E0
1.171103276E1,2.521218061E-1,-2.166158676E0,6.215965271E0,6.587414748E0
1.171903218E1,1.502714157E-1,-2.916387796E0,4.772523880E0,5.595076716E0
1.172703257E1,-1.513604522E-1,-3.642502785E0,3.444329262E0,5.015390372E0
1.173503437E1,-5.095729828E-1,-4.137289047E0,2.627807617E0,4.927697044E0
1.174303675E1,-9.816686511E-1,-4.486244202E0,2.043610573E0,5.026569859E0
1.175103816E1,-1.449290991E0,-4.748897552E0,1.701368332E0,5.248535657E0
1.175903690E1,-1.850737095E0,-4.948368073E0,1.286375046E0,5.437493461E0
1.176703878E1,-1.872031808E0,-5.163835049E0,9.123544693E-1,5.567951704E0
1.177504073E1,-1.585885048E0,-5.371532917E0,5.203609467E-1,5.624870912E0
1.178304292E1,-1.120630264E0,-5.531095028E0,1.997089386E-2,5.643511605E0
1.179104382E1,-4.656891823E-1,-5.723519802E0,-4.418907166E-1,5.759410798E0
1.179904628E1,2.329280376E-1,-6.009193897E0,-6.605219841E-1,6.049872400E0
1.180704831E1,4.919277728E-1,-6.320028782E0,-9.477286339E-1,6.409597983E0
1.181504921E1,1.890732348E-1,-6.628472328E0,-1.300204754E0,6.757434905E0
1.182304980E1,-4.775552750E-1,-6.911365032E0,-1.645706177E0,7.120630202E0
1.183105042E1,-1.309555173E0,-7.198897362E0,-2.209192276E0,7.643270798E0
1.183905390E1,-1.771819472E0,-7.486944675E0,-2.979283810E0,8.250443433E0
1.184705776E1,-1.966884017E0,-7.762772560E0,-4.217285156E0,9.050677579E0
1.185506046E1,-1.951926708E0,-7.995453835E0,-5.169267178E0,9.718982614E0
1.186306245E1,-1.914212465E0,-8.029914856E0,-6.168439388E0,1.030501754E1
1.187106265E1,-1.942574024E0,-7.814019203E0,-6.889492989E0,1.059705636E1
1.187906425E1,-1.937438846E0,-7.310658455E0,-7.442891121E0,1.061112739E1
1.188706616E1,-1.634754896E0,-6.812187672E0,-7.576000214E0,1.031862896E1
1.189506819E1,-1.052273393E0,-6.307735920E0,-7.667311668E0,9.984111375E0
1.190307526E1,-5.713027716E-1,-6.013333321E0,-7.662684441E0,9.757217704E0
1.191108304E1,-2.109723687E-1,-5.874739170E0,-7.603989601E0,9.611333285E0
1.191908577E1,-1.488803476E-1,-5.907835960E0,-7.446356773E0,9.506467288E0
1.192708769E1,-2.818339467E-1,-5.925621986E0,-7.281682014E0,9.392301063E0
1.193509124E1,-2.628320456E-1,-5.809422493E0,-7.358370781E0,9.378917365E0
1.194309784E1,1.055243239E-1,-5.599805832E0,-7.418761253E0,9.295535448E0
1.195110093E1,6.547765732E-1,-5.401415825E0,-7.262693405E0,9.074730893E0
1.195910069E1,9.716033936E-1,-5.117140293E0,-6.848695755E0,8.604287970E0
1.196710120E1,8.686652780E-1,-4.779973507E0,-6.368896961E0,8.010341728E0
1.197510347E1,3.399468362E-1,-4.623010635E0,-6.328005791E0,7.844198396E0
1.198310120E1,-3.430953622E-1,-4.602588654E0,-6.572506905E0,8.031150836E0
1.199109667E1,-6.953589320E-1,-4.632069588E0,-6.988105297E0,8.412681401E0
1.199909386E1,-6.653199196E-1,-4.498442650E0,-7.595810413E0,8.852964063E0
1.200709089E1,-3.777382076E-1,-4.174102783E0,-8.020734787E0,9.049751749E0
1.201509198E1,-6.020136178E-3,-3.633501053E0,-8.590366364E0,9.327205391E0
1.202309069E1,2.777123451E-1,-3.143198490E0,-8.894536972E0,9.437669672E0
1.203109190E1,5.660358071E-1,-2.553332806E0,-8.658358574E0,9.044726538E0
1.203909472E1,5.507264137E-1,-2.054898262E0,-8.313270569E0,8.581163907E0
1.204709796E1,4.092134237E-1,-1.594120979E0,-8.115499496E0,8.280701021E0
1.205510159E1,6.590322256E-1,-1.299325943E0,-7.876292229E0,8.009903286E0
1.206310316E1,1.125048757E0,-9.476060867E-1,-7.406588554E0,7.551241356E0
1.207110409E1,1.310230732E0,-6.179304123E-1,-6.809211254E0,6.961601861E0
1.207910151E1,1.359885693E0,-3.483161926E-1,-6.251353264E0,6.407029803E0
1.208709991E1,1.241277814E0,-2.231006622E-1,-5.963547230E0,6.095444207E0
1.209509964E1,1.097777605E0,-1.761689186E-1,-5.852804184E0,5.957471609E0
1.210309753E1,1.445065379E0,-1.542935371E-1,-5.818257809E0,5.997011287E0
1.211109722E1,2.438641071E0,-1.487822533E-1,-5.628331184E0,6.135732911E0
1.211909612E1,3.396294117E0,2.017402649E-2,-5.434146881E0,6.408211376E0
1.212709671E1,3.649233818E0,2.565407753E-1,-5.470716476E0,6.581144231E0
1.213509890E1,3.734354496E0,1.837611198E-1,-5.667976856E0,6.790076089E0
1.214309944E1,3.823204041E0,-4.797949791E-1,-5.758419991E0,6.928671817E0
1.215110171E1,3.278289557E0,-1.448252678E0,-5.553156376E0,6.609248367E0
1.215910304E1,2.290550232E0,-2.165558338E0,-5.100057602E0,5.995569266E0
1.216710179E1,1.217653155E0,-3.001790524E0,-4.669263363E0,5.682908226E0
1.217510495E1,5.341894627E-1,-3.870880127E0,-4.754850388E0,6.154484020E0
1.218310812E1,-2.566041946E-1,-4.680893898E0,-4.649823189E0,6.602837957E0
1.219111073E1,-6.461837292E-1,-4.877599716E0,-4.066141129E0,6.382948855E0
1.219911159E1,-3.101885319E-1,-4.717792511E0,-2.927475452E0,5.560925789E0
1.220711171E1,7.198256254E-1,-4.497558117E0,-1.845044613E0,4.914302348E0
1.221511089E1,1.935079336E0,-4.277081490E0,-7.224264145E-1,4.749721890E0
1.222311214E1,3.034553051E0,-3.950638294E0,8.988819122E-1,5.062019740E0
1.223111218E1,3.593100548E0,-3.589413166E0,2.363902092E0,5.601989961E0
1.223911116E1,3.800848722E0,-3.327297688E0,4.017500877E0,6.454275654E0
1.224711304E1,3.421247005E0,-3.129655600E0,5.383104324E0,7.104751045E0
1.225511558E1,2.488320589E0,-2.985944033E0,6.934763908E0,7.949751668E0
1.226311683E1,1.527657509E0,-2.736618757E0,8.231249809E0,8.807740522E0
1.227111827E1,5.755243301E-1,-2.191310406E0,9.748652458E0,1.000846114E1
1.227911765E1,-2.309305668E-1,-1.301530123E0,1.093428612E1,1.101389679E1
1.228711608E1,-4.737193584E-1,-6.565785408E-2,1.119577885E1,1.120598880E1
1.229511585E1,1.831767559E-1,8.919492960E-1,1.057553768E1,1.061466554E1
1.230311491E1,1.176216602E0,1.483695030E0,9.686070442E0,9.869386863E0
1.231111522E1,1.697341919E0,1.844374180E0,9.092122078E0,9.431297344E0
1.231911569E1,1.986611366E0,2.113551378E0,8.271464348E0,8.765320679E0
1.232711640E1,2.240892410E0,2.054424763E0,7.305579185E0,7.912884881E0
1.233511780E1,2.412532330E0,1.762809634E0,6.592844963E0,7.238329556E0
1.234311683E1,2.262639046E0,1.382095933E0,6.800541878E0,7.299116005E0
1.235111460E1,1.847981453E0,1.261066437E0,7.868159294E0,8.180052242E0
1.235911273E1,1.369830370E0,1.270852208E0,9.940730095E0,1.011482157E1
1.236711226E1,1.050878286E0,1.243446589E0,1.179594994E1,1.190776803E1
1.237511433E1,7.176332474E-1,1.204339743E0,1.394182205E1,1.401213167E1
1.238311585E1,3.629004955E-1,1.265207291E0,1.594888496E1,1.600310526E1
1.239111788E1,8.302211761E-2,1.301968813E0,1.785459518E1,1.790219497E1
1.239912167E1,1.549773216E-1,1.201463461E0,1.897617340E1,1.901480185E1
1.240712523E1,4.733433723E-1,1.012111068E0,1.955853271E1,1.959042176E1
1.241512714E1,6.855442524E-1,7.956680059E-1,1.933076477E1,1.935927491E1
1.242312944E1,5.753822327E-1,5.775722265E-1,1.801766968E1,1.803610476E1
1.243112808E1,4.948453903E-1,3.002794385E-1,1.630982590E1,1.632009377E1
1.243912792E1,7.211844921E-1,-1.471014023E-1,1.404505634E1,1.406432912E1
1.244712554E1,9.406745434E-1,-6.398211122E-1,1.195599365E1,1.200999683E1
1.245512284E1,9.401762486E-1,-9.459756017E-1,1.004223537E1,1.013041423E1
1.246312132E1,8.281109333E-1,-1.070132971E0,8.832537651E0,8.935584684E0
1.247112042E1,7.145104408E-1,-1.225161076E0,7.677515030E0,7.807418387E0
1.247912050E1,5.498530865E-1,-1.406571984E0,6.586408615E0,6.757333913E0
1.248712148E1,4.352262020E-1,-1.511397600E0,6.057592392E0,6.258447902E0
1.249511812E1,4.150974751E-1,-1.545961976E0,5.732778549E0,5.952063024E0
1.250311663E1,4.473817348E-1,-1.622087240E0,5.523309708E0,5.773929992E0
1.251111589E1,6.052970886E-1,-1.559455395E0,5.473427773E0,5.723346685E0
1.251911276E1,8.947889805E-1,-1.463967085E0,5.630902290E0,5.886502149E0
1.252711046E1,1.295860052E0,-1.469885826E0,5.932842255E0,6.248074490E0
1.253510730E1,1.600153565E0,-1.734431982E0,6.146845818E0,6.584258443E0
1.254310222E1,1.744920731E0,-2.257807732E0,6.009697914E0,6.652737266E0
1.255109780E1,1.725633025E0,-2.795793772E0,5.615025520E0,6.505596341E0
1.255909491E1,1.693380713E0,-3.377241850E0,4.995217323E0,6.263026174E0
1.256708862E1,1.725890160E0,-3.959079027E0,4.401373863E0,6.166449178E0
1.257508468E1,1.718549013E0,-4.656380653E0,3.678004265E0,6.177621457E0
1.258308163E1,1.609319448E0,-5.325106621E0,2.861720085E0,6.255886145E0
1.259108022E1,1.417760134E0,-5.958198071E0,1.778918266E0,6.377673419E0
1.259907604E1,1.036007881E0,-6.564874649E0,4.094562531E-1,6.658719540E0
1.260706898E1,7.799214125E-1,-6.853068829E0,-5.813579559E-1,6.921763276E0
1.261506683E1,6.788624525E-1,-6.848029613E0,-1.342222691E0,7.011271323E0
1.262306257E1,6.418318748E-1,-6.762536049E0,-1.896962166E0,7.052822657E0
1.263105866E1,3.970771432E-1,-6.575635910E0,-2.428920746E0,7.021133375E0
1.263905374E1,3.535355031E-1,-6.447583199E0,-2.421281815E0,6.896297708E0
1.264705042E1,2.794980407E-1,-6.450595379E0,-1.829383850E0,6.710808086E0
1.265504378E1,1.018359885E-1,-6.618683338E0,-1.180479050E0,6.723902921E0
1.266303690E1,-1.047226340E-1,-6.843542576E0,-8.134117126E-1,6.892509008E0
1.267103589E1,-3.589448333E-2,-7.104465961E0,-1.054966927E0,7.182456420E0
1.267903319E1,3.446149826E-2,-7.506887913E0,-1.669219494E0,7.690308671E0
1.268703058E1,-6.284439564E-2,-7.885473251E0,-2.183151722E0,8.182346195E0
1.269502948E1,-2.003775835E-1,-8.291267395E0,-2.781650543E0,8.747733760E0
1.270302831E1,-3.071148396E-1,-8.663355827E0,-3.301971197E0,9.276371462E0
1.271102659E1,-5.151148438E-1,-8.997011185E0,-3.523901701E0,9.676230504E0
1.271902464E1,-7.822365165E-1,-9.222690582E0,-3.623641253E0,9.939853695E0
1.272702257E1,-9.664308429E-1,-9.546556473E0,-4.081752777E0,1.042743664E1
1.273501854E1,-1.313227296E0,-9.804841042E0,-4.999852180E0,1.108413261E1
1.274301538E1,-1.594208121E0,-9.860985756E0,-5.982619286E0,1.164355071E1
1.275100960E1,-1.849473834E0,-9.792385101E0,-6.796865463E0,1.206270034E1
1.275900554E1,-2.159895420E0,-9.749897003E0,-7.070835114E0,1.223610841E1
1.276700261E1,-2.564005375E0,-9.573476791E0,-7.110231876E0,1.219758086E1
1.277500120E1,-2.830138683E0,-9.198781967E0,-7.302106857E0,1.208089563E1
1.278299851E1,-2.860372066E0,-8.811107635E0,-8.218362808E0,1.238381336E1
1.279099761E1,-2.963345289E0,-8.567722321E0,-9.103888512E0,1.284788181E1
1.279899593E1,-3.314328671E0,-8.219091415E0,-9.399893761E0,1.291883280E1
1.280699355E1,-3.705570698E0,-7.686411858E0,-9.093877792E0,1.247039674E1
1.281498870E1,-3.747709751E0,-6.894505501E0,-8.595905304E0,1.163912035E1
1.282298441E1,-3.391808271E0,-6.275935650E0,-7.840186119E0,1.060001179E1
1.283097812E1,-2.744803429E0,-5.590020180E0,-6.891788006E0,9.288649708E0
1.283897370E1,-1.830933571E0,-4.722893715E0,-5.704209328E0,7.628633353E0
1.284697085E1,-1.108946800E0,-3.766088486E0,-4.822893620E0,6.218801199E0
1.285496726E1,-3.621022701E-1,-2.666922569E0,-4.557622433E0,5.292968570E0
1.286296120E1,2.101452351E-1,-1.718070984E0,-4.493685722E0,4.815510388E0
1.287095917E1,5.981857181E-1,-5.318717957E-1,-3.695530415E0,3.781224511E0
1.287895831E1,8.128625751E-1,5.269632339E-1,-2.703135014E0,2.871476052E0
1.288695413E1,9.949007034E-1,1.395853996E0,-2.035193682E0,2.660873749E0
1.289494999E1,1.069867373E0,2.002598763E0,-1.637550354E0,2.799390855E0
1.290294573E1,1.337786913E0,2.797241211E0,-1.392314196E0,3.398936751E0
1.291094202E1,1.885646939E0,3.449140549E0,-1.626906872E0,4.254299105E0
1.291893890E1,2.477898598E0,3.890401840E0,-1.889560580E0,4.984540814E0
1.292693816E1,2.730357170E0,3.981692314E0,-1.607283235E0,5.088426413E0
1.293493690E1,2.790462494E0,3.947022438E0,-5.898112655E-1,4.869655469E0
1.294293745E1,2.562132835E0,3.941872597E0,3.183855712E-1,4.712138963E0
1.295093558E1,2.124708176E0,3.845645905E0,4.937719405E-1,4.421220192E0
1.295893218E1,1.505746961E0,3.649034500E0,9.252220392E-2,3.948580384E0
1.296692843E1,1.043142557E0,3.443382263E0,-6.398924589E-1,3.654379587E0
1.297492573E1,4.266476631E-1,3.080320358E0,-1.111853004E0,3.302517046E0
1.298292519E1,-2.348815203E-1,2.790685654E0,-1.063168287E0,2.995567151E0
1.299092300E1,-5.411397219E-1,2.522377968E0,-1.446133614E0,2.957452492E0
1.299891991E1,-3.450520039E-1,2.490367889E0,-1.536358476E0,2.946419942E0
1.300691874E1,-2.956758738E-1,2.497099876E0,-1.339874387E0,2.849244705E0
1.301491749E1,-4.374432564E-1,2.381714821E0,-8.771663904E-1,2.575527706E0
1.302291706E1,-3.512995243E-1,2.218058586E0,-5.078618526E-1,2.302415885E0
1.303091546E1,1.670362949E-1,2.234945297E0,-6.749830246E-1,2.340616092E0
1.303891062E1,7.467004061E-1,2.320691109E0,-9.426275492E-1,2.613755041E0
1.304690757E1,8.677148819E-1,2.278177261E0,-7.168600559E-1,2.541044882E0
